cue_location,sequence_location,target_congruent,target_direction,response,correct,rt,sub,trial_num
down,up,yes,right,right,1,0.5442970001604408,sub-daisy_duck,238
up,up,yes,right,right,1,0.3736407998949289,sub-daisy_duck,576
both,up,no,right,right,1,0.576458299998194,sub-daisy_duck,210
down,up,no,left,left,1,0.6456237998791039,sub-daisy_duck,204
down,up,yes,right,right,1,0.5090760001912713,sub-daisy_duck,562
both,up,yes,right,right,1,0.475117800058797,sub-daisy_duck,589
up,up,yes,right,right,1,0.4412926998920738,sub-daisy_duck,28
down,down,yes,left,left,1,0.5089751000050455,sub-daisy_duck,14
up,down,yes,left,left,1,0.3904750999063253,sub-daisy_duck,628
down,up,no,left,left,1,0.510323400143534,sub-daisy_duck,166
both,up,no,left,left,1,0.5261163997929543,sub-daisy_duck,600
both,down,yes,left,left,1,0.4425716998521238,sub-daisy_duck,614
both,up,no,left,left,1,0.6452411999925971,sub-daisy_duck,172
up,up,yes,left,left,1,0.4422351999673992,sub-daisy_duck,199
up,down,yes,right,right,1,0.4413028999697417,sub-daisy_duck,358
both,down,no,right,right,1,0.5256024999544024,sub-daisy_duck,402
up,up,no,right,right,1,0.5945943999104202,sub-daisy_duck,364
down,up,no,left,left,1,0.6280441998969764,sub-daisy_duck,370
down,up,yes,left,left,1,0.3903135000728071,sub-daisy_duck,416
up,up,yes,left,left,1,0.3742130000609904,sub-daisy_duck,371
up,up,yes,right,right,1,0.627897199941799,sub-daisy_duck,417
both,up,yes,right,right,1,0.4420789999421686,sub-daisy_duck,403
both,up,yes,left,left,1,0.4752368999179452,sub-daisy_duck,365
up,down,no,left,left,1,0.5094254999421537,sub-daisy_duck,359
both,down,yes,right,right,1,0.4924604999832809,sub-daisy_duck,198
down,up,no,right,right,1,0.5598523002117872,sub-daisy_duck,615
down,up,yes,left,left,1,0.4759128999430686,sub-daisy_duck,173
both,up,yes,right,right,1,0.4421705999411642,sub-daisy_duck,167
down,up,no,left,left,1,0.4748078000266105,sub-daisy_duck,601
down,up,yes,left,left,1,0.4409066000953316,sub-daisy_duck,629
up,down,yes,right,right,1,0.4073276000563055,sub-daisy_duck,15
both,up,yes,left,left,1,0.3913209000602364,sub-daisy_duck,29
down,down,no,right,right,1,0.5269108000211418,sub-daisy_duck,588
down,up,yes,right,right,1,0.4083465998992324,sub-daisy_duck,205
both,up,no,left,left,1,0.4928868000861257,sub-daisy_duck,563
down,down,yes,left,left,1,0.4077255001757294,sub-daisy_duck,577
up,down,no,right,right,1,0.6102213999256492,sub-daisy_duck,211
both,up,yes,left,left,1,0.4249871999491006,sub-daisy_duck,239
down,down,yes,left,left,1,0.3903230999130755,sub-daisy_duck,549
up,down,no,left,left,1,0.525619599968195,sub-daisy_duck,561
both,up,no,left,left,1,0.5950331999920309,sub-daisy_duck,207
both,down,no,right,right,1,0.5436129998415709,sub-daisy_duck,213
down,up,yes,left,left,1,0.5097779999487102,sub-daisy_duck,575
down,down,no,left,right,0,0.4243772001937032,sub-daisy_duck,17
up,down,yes,left,left,1,0.4241619000677019,sub-daisy_duck,159
down,down,yes,left,left,1,0.4413408001419157,sub-daisy_duck,171
down,down,no,left,left,1,0.6110113000031561,sub-daisy_duck,617
up,up,yes,left,left,1,0.4581643999554217,sub-daisy_duck,603
up,up,no,right,right,1,0.5784071001689881,sub-daisy_duck,165
up,up,no,left,left,1,0.6111947000026703,sub-daisy_duck,429
both,up,yes,left,left,1,0.373682000208646,sub-daisy_duck,415
up,up,yes,right,right,1,0.5609118998982012,sub-daisy_duck,373
up,down,no,left,left,1,0.595196999842301,sub-daisy_duck,367
down,down,no,left,left,1,0.8498607999645174,sub-daisy_duck,401
both,up,yes,left,left,1,0.474706299835816,sub-daisy_duck,398
up,up,no,left,left,1,0.5941949000116438,sub-daisy_duck,399
both,down,no,right,right,1,0.6457113001961261,sub-daisy_duck,366
down,up,no,right,right,1,0.6275298001710325,sub-daisy_duck,400
up,down,no,right,right,1,0.5269877999089658,sub-daisy_duck,414
up,down,yes,right,right,1,0.3905750999692827,sub-daisy_duck,372
both,down,no,right,right,1,0.5428678002208471,sub-daisy_duck,428
down,down,no,right,right,1,0.5764728998765349,sub-daisy_duck,602
up,down,yes,right,right,1,0.4086014998611063,sub-daisy_duck,164
down,up,yes,right,right,1,0.5272485001478344,sub-daisy_duck,170
up,up,no,left,left,1,0.5433322999160737,sub-daisy_duck,616
down,up,yes,left,left,1,0.4256156000774354,sub-daisy_duck,158
both,down,yes,left,left,1,0.390404200181365,sub-daisy_duck,16
both,up,yes,left,left,1,0.441249500028789,sub-daisy_duck,212
up,up,yes,right,right,1,0.4085504000540823,sub-daisy_duck,574
down,down,no,left,left,1,0.5609569998923689,sub-daisy_duck,560
up,down,no,left,left,1,0.5260771000757813,sub-daisy_duck,206
down,down,no,right,right,1,0.5268484000116587,sub-daisy_duck,548
down,up,no,right,left,0,0.3926204999443143,sub-daisy_duck,202
both,up,yes,right,right,1,0.4578635001089424,sub-daisy_duck,564
down,down,no,right,right,1,0.54292710009031,sub-daisy_duck,570
both,up,yes,right,right,1,0.4247616999782622,sub-daisy_duck,216
up,down,yes,left,left,1,0.425212100148201,sub-daisy_duck,558
both,down,no,right,right,1,0.5436293000821024,sub-daisy_duck,12
up,up,yes,right,right,1,0.5446585998870432,sub-daisy_duck,612
both,up,no,right,right,1,0.5783646998461336,sub-daisy_duck,174
both,down,no,left,left,1,0.628299199976027,sub-daisy_duck,160
up,down,no,right,right,1,0.510626999894157,sub-daisy_duck,606
down,down,no,right,right,1,0.5763492998667061,sub-daisy_duck,148
both,up,yes,right,right,1,0.6801534001715481,sub-daisy_duck,376
up,down,yes,right,right,1,0.4080895001534372,sub-daisy_duck,410
up,up,yes,left,left,1,0.4587230000179261,sub-daisy_duck,404
down,down,no,left,left,1,0.5612484999001026,sub-daisy_duck,362
down,up,yes,left,left,1,0.4760439998935908,sub-daisy_duck,438
both,up,no,right,right,1,0.5268864999525249,sub-daisy_duck,389
down,up,no,left,left,1,0.6122411000542343,sub-daisy_duck,388
down,down,no,right,right,1,0.5270930000115186,sub-daisy_duck,439
down,down,no,right,right,1,0.5614008998963982,sub-daisy_duck,405
up,up,no,left,left,1,0.6118834000080824,sub-daisy_duck,363
down,down,no,right,right,1,0.6448894999921322,sub-daisy_duck,377
down,up,no,right,right,1,0.6112782000564039,sub-daisy_duck,411
down,down,no,left,left,1,0.5267982000950724,sub-daisy_duck,149
up,up,no,left,left,1,0.5773885999806225,sub-daisy_duck,161
both,down,no,left,left,1,0.5939104000572115,sub-daisy_duck,607
up,up,no,right,right,1,0.6110621001571417,sub-daisy_duck,613
up,down,no,left,left,1,0.5939976999070495,sub-daisy_duck,175
up,up,no,right,right,1,0.5260240999050438,sub-daisy_duck,13
both,up,no,right,right,1,0.5262403998058289,sub-daisy_duck,559
both,down,yes,right,right,1,0.4585075001232326,sub-daisy_duck,571
both,down,no,right,right,1,0.6277201999910176,sub-daisy_duck,217
both,up,yes,right,right,1,0.4601294999010861,sub-daisy_duck,203
up,down,no,right,right,1,0.5263364999555051,sub-daisy_duck,565
down,down,yes,right,right,1,0.4254356999881565,sub-daisy_duck,215
down,down,yes,left,left,1,0.4424229001160711,sub-daisy_duck,573
up,down,yes,right,right,1,0.4588168000336736,sub-daisy_duck,567
up,up,no,right,right,1,0.5948844000231475,sub-daisy_duck,201
down,down,no,left,left,1,0.5783808999694884,sub-daisy_duck,229
down,up,yes,right,right,1,0.4414689999539405,sub-daisy_duck,598
both,up,yes,right,right,1,0.4411613000556826,sub-daisy_duck,11
both,up,no,right,right,1,0.6118006000760943,sub-daisy_duck,39
down,down,yes,left,left,1,0.3735159998759627,sub-daisy_duck,605
both,down,yes,right,right,1,0.578676899895072,sub-daisy_duck,163
down,down,no,left,left,1,0.5430093000177294,sub-daisy_duck,177
both,up,no,right,right,1,0.6452717001084238,sub-daisy_duck,611
down,down,yes,right,right,1,0.4084363000001758,sub-daisy_duck,639
both,up,yes,right,right,1,0.4083702999632805,sub-daisy_duck,188
both,down,no,left,right,0,0.3912032998632639,sub-daisy_duck,361
up,up,no,right,right,1,0.5944258000236005,sub-daisy_duck,407
down,up,yes,right,right,1,0.4420249001123011,sub-daisy_duck,413
both,up,no,right,left,0,0.4412873000837862,sub-daisy_duck,375
down,down,no,right,right,1,0.5934051999356598,sub-daisy_duck,349
up,down,no,right,right,1,0.6107652001082897,sub-daisy_duck,348
both,up,no,left,left,1,0.527221400057897,sub-daisy_duck,412
down,up,yes,right,right,1,0.4240342997945845,sub-daisy_duck,374
up,down,yes,left,left,1,0.4242896998766809,sub-daisy_duck,360
down,down,yes,left,left,1,0.4087352000642568,sub-daisy_duck,406
up,down,no,right,right,1,0.5776311999652535,sub-daisy_duck,189
up,up,no,left,left,1,0.5615117999259382,sub-daisy_duck,638
up,up,no,left,left,1,0.5941643000114709,sub-daisy_duck,176
up,down,no,left,left,1,0.4754061999265104,sub-daisy_duck,610
down,up,yes,right,right,1,0.4083957998082042,sub-daisy_duck,604
down,up,no,right,right,1,0.5096684999298304,sub-daisy_duck,162
down,down,no,right,right,1,0.6662254999391735,sub-daisy_duck,38
down,up,no,right,right,1,0.5769340000115335,sub-daisy_duck,10
up,up,yes,left,left,1,0.3736596000380814,sub-daisy_duck,599
down,up,yes,left,left,1,0.4239874999038875,sub-daisy_duck,228
both,down,no,right,right,1,0.5093330000527203,sub-daisy_duck,566
up,down,yes,right,right,1,0.3405806999653578,sub-daisy_duck,200
down,down,no,left,left,1,0.4935705999378115,sub-daisy_duck,214
down,up,no,right,right,1,0.695676299976185,sub-daisy_duck,572
up,down,no,right,right,1,0.5432046998757869,sub-daisy_duck,529
up,up,no,right,right,1,0.5430787999648601,sub-daisy_duck,273
down,down,yes,right,right,1,0.4253211000468582,sub-daisy_duck,515
up,up,no,right,right,1,0.5104981998447329,sub-daisy_duck,501
up,down,no,right,right,1,0.5954788001254201,sub-daisy_duck,267
down,up,no,left,left,1,0.5954525000415742,sub-daisy_duck,298
both,down,yes,left,left,1,0.4069820998702198,sub-daisy_duck,88
down,down,no,right,right,1,0.6278580001089722,sub-daisy_duck,77
down,down,yes,left,left,1,0.4581178000662476,sub-daisy_duck,63
up,up,no,left,left,1,0.62809729995206,sub-daisy_duck,139
both,up,yes,left,left,1,0.3922623000107705,sub-daisy_duck,105
both,down,yes,left,left,1,0.4411820000968873,sub-daisy_duck,111
up,down,yes,left,left,1,0.4421049000229686,sub-daisy_duck,449
up,up,no,right,right,1,0.5086345998570323,sub-daisy_duck,307
both,up,yes,left,left,1,0.3739928000140935,sub-daisy_duck,461
down,up,yes,left,left,1,0.4073098001535982,sub-daisy_duck,475
up,up,yes,left,left,1,0.4427885999903083,sub-daisy_duck,313
down,down,yes,right,right,1,0.4586193999275565,sub-daisy_duck,474
down,up,yes,left,left,1,0.408284300006926,sub-daisy_duck,312
down,up,yes,left,left,1,0.4411261999048292,sub-daisy_duck,306
up,up,yes,left,left,1,0.3751982001122087,sub-daisy_duck,460
down,up,no,left,left,1,0.5606953999958932,sub-daisy_duck,448
down,down,no,left,left,1,0.5426940999459475,sub-daisy_duck,110
up,down,no,left,left,1,0.5952212999109179,sub-daisy_duck,104
both,down,no,left,left,1,0.6121606000233442,sub-daisy_duck,138
both,down,no,right,right,1,0.594527600100264,sub-daisy_duck,62
up,up,no,right,right,1,0.6107534999027848,sub-daisy_duck,76
both,up,yes,left,left,1,0.4408954000100493,sub-daisy_duck,89
down,down,no,left,left,1,0.476071200100705,sub-daisy_duck,299
both,down,no,left,left,1,0.5431922001298517,sub-daisy_duck,500
up,down,no,left,left,1,0.6963187998626381,sub-daisy_duck,266
up,up,yes,left,left,1,0.4069028999656439,sub-daisy_duck,272
both,down,no,right,right,1,0.5439691001083702,sub-daisy_duck,514
down,up,yes,right,right,1,0.5598402998875827,sub-daisy_duck,528
down,down,yes,right,right,1,0.493688799906522,sub-daisy_duck,258
down,up,yes,right,right,1,0.4922135998494923,sub-daisy_duck,264
up,up,yes,right,right,1,0.4763629001099616,sub-daisy_duck,502
up,down,yes,right,right,1,0.4250135999172926,sub-daisy_duck,516
down,up,yes,left,left,1,0.4586735998746007,sub-daisy_duck,270
up,up,yes,right,right,1,0.4250121999066323,sub-daisy_duck,9
up,up,no,left,left,1,0.5271190998610109,sub-daisy_duck,48
down,down,yes,right,right,1,0.4076519000809639,sub-daisy_duck,60
down,up,no,left,left,1,0.5781149000395089,sub-daisy_duck,74
down,up,no,right,right,1,0.6785993000958115,sub-daisy_duck,112
both,down,no,right,right,1,0.6282840000931174,sub-daisy_duck,106
up,up,no,right,right,1,0.5439946998376399,sub-daisy_duck,338
both,up,no,right,right,1,0.5259964999277145,sub-daisy_duck,310
up,down,no,right,right,1,0.578414199873805,sub-daisy_duck,476
down,down,yes,left,left,1,0.4585059001110494,sub-daisy_duck,462
both,up,yes,left,left,1,0.4082750000525266,sub-daisy_duck,304
down,down,yes,left,left,1,0.407553399913013,sub-daisy_duck,489
up,down,no,right,right,1,0.5774167000781745,sub-daisy_duck,488
both,down,yes,left,left,1,0.4061966000590473,sub-daisy_duck,463
up,down,no,left,left,1,0.6113458999898285,sub-daisy_duck,305
up,up,yes,right,right,1,0.441669899970293,sub-daisy_duck,311
both,up,no,right,right,1,0.577118800021708,sub-daisy_duck,477
up,up,yes,left,left,1,0.4758693999610841,sub-daisy_duck,339
up,up,no,right,right,1,0.680016899947077,sub-daisy_duck,107
up,up,yes,right,right,1,0.4927270000334829,sub-daisy_duck,113
both,down,yes,right,right,1,0.5612230999395251,sub-daisy_duck,75
up,up,yes,left,left,1,0.3904745997861027,sub-daisy_duck,61
up,down,no,right,right,1,0.7136257998645306,sub-daisy_duck,49
both,down,yes,right,right,1,0.5258339000865817,sub-daisy_duck,8
up,down,yes,left,left,1,0.4588244999758899,sub-daisy_duck,517
up,down,yes,right,right,1,0.5429670999292284,sub-daisy_duck,271
up,up,yes,right,right,1,0.4413693998940289,sub-daisy_duck,265
up,down,yes,right,right,1,0.5099323000758886,sub-daisy_duck,503
down,down,yes,left,left,1,0.3565807999111712,sub-daisy_duck,259
both,up,yes,right,right,1,0.4073671998921782,sub-daisy_duck,507
both,up,yes,right,right,1,0.492382800206542,sub-daisy_duck,261
down,down,yes,right,right,1,0.544107099995017,sub-daisy_duck,275
down,up,yes,left,left,1,0.560051100095734,sub-daisy_duck,513
up,down,no,right,right,1,0.5443596001714468,sub-daisy_duck,249
down,up,yes,right,right,1,0.4923336000647396,sub-daisy_duck,65
down,down,no,left,left,1,0.5768107001204044,sub-daisy_duck,71
down,down,no,right,right,1,0.5776185998693109,sub-daisy_duck,59
up,down,yes,right,right,1,0.4580192000139504,sub-daisy_duck,117
down,up,no,left,left,1,0.5773709998466074,sub-daisy_duck,103
up,up,no,left,left,1,0.5606498999986798,sub-daisy_duck,473
down,up,no,left,left,1,0.6110431000124663,sub-daisy_duck,315
both,down,no,left,left,1,0.4243499999865889,sub-daisy_duck,301
up,down,no,left,right,0,0.4083803999237716,sub-daisy_duck,467
up,down,yes,right,right,1,0.4411820000968873,sub-daisy_duck,329
down,up,yes,right,right,1,0.4255526000633836,sub-daisy_duck,498
down,down,no,right,right,1,0.5600809999741614,sub-daisy_duck,499
down,up,no,right,right,1,0.526769099989906,sub-daisy_duck,328
both,down,yes,right,right,1,0.458242499968037,sub-daisy_duck,300
up,down,yes,left,left,1,0.4254296000581234,sub-daisy_duck,466
down,down,no,right,right,1,0.5099186999723315,sub-daisy_duck,472
both,up,yes,left,left,1,0.3745824999641627,sub-daisy_duck,314
up,up,no,left,left,1,0.577389599988237,sub-daisy_duck,102
both,up,yes,right,right,1,0.4069173999596387,sub-daisy_duck,116
down,up,no,left,right,0,0.3732662000693381,sub-daisy_duck,58
both,down,yes,left,left,1,0.5614438999909908,sub-daisy_duck,70
both,up,no,left,right,0,0.4583290000446141,sub-daisy_duck,64
both,down,no,right,right,1,0.5442080001812428,sub-daisy_duck,248
down,down,no,right,right,1,0.6109508001245558,sub-daisy_duck,274
up,up,no,right,left,0,0.4251177001278847,sub-daisy_duck,512
both,down,yes,right,right,1,0.4243447999469936,sub-daisy_duck,506
down,down,no,left,left,1,0.578603999922052,sub-daisy_duck,260
up,down,no,right,right,1,0.5598907000385225,sub-daisy_duck,510
both,down,no,right,right,1,0.6107286000624299,sub-daisy_duck,276
down,up,yes,left,left,1,0.6106755000073463,sub-daisy_duck,262
up,down,no,left,left,1,0.4759873000439256,sub-daisy_duck,504
up,up,no,right,right,1,0.5768367999698967,sub-daisy_duck,538
up,down,yes,right,right,1,0.4577530000824481,sub-daisy_duck,289
down,down,yes,right,right,1,0.5267109998967499,sub-daisy_duck,99
both,up,no,right,right,1,0.6964618000201881,sub-daisy_duck,72
both,down,no,left,left,1,0.6784409999381751,sub-daisy_duck,66
up,up,yes,left,left,1,0.3916882001794874,sub-daisy_duck,100
down,down,yes,left,left,1,0.4076232998631894,sub-daisy_duck,114
down,up,yes,right,right,1,0.4427010000217706,sub-daisy_duck,128
both,down,no,left,left,1,0.798596499953419,sub-daisy_duck,464
down,up,no,right,right,1,0.6783839999698102,sub-daisy_duck,302
both,up,no,left,left,1,0.5774250000249594,sub-daisy_duck,316
down,down,no,left,left,1,0.5273932998534292,sub-daisy_duck,470
both,down,yes,right,right,1,0.5260836998932064,sub-daisy_duck,458
up,down,yes,right,right,1,0.4584994001779705,sub-daisy_duck,459
down,down,yes,left,left,1,0.4928270999807864,sub-daisy_duck,317
down,up,no,left,left,1,0.5265007000416517,sub-daisy_duck,471
up,up,no,right,right,1,0.6785462000407279,sub-daisy_duck,465
up,up,yes,left,left,1,0.3733900999650359,sub-daisy_duck,303
up,up,yes,right,right,1,0.4425056001637131,sub-daisy_duck,129
down,up,yes,left,left,1,0.3902460997924208,sub-daisy_duck,115
down,down,no,right,right,1,0.6274278999771923,sub-daisy_duck,101
up,down,no,left,left,1,0.5766181000508368,sub-daisy_duck,67
up,up,yes,right,right,1,0.4766304001677781,sub-daisy_duck,73
up,down,no,right,right,1,0.5268845001701266,sub-daisy_duck,98
down,down,yes,right,right,1,0.4246658999472856,sub-daisy_duck,288
down,up,no,left,left,1,0.4924242000561207,sub-daisy_duck,539
both,down,yes,right,right,1,0.4751510000787675,sub-daisy_duck,263
down,down,no,left,left,1,0.7982112001627684,sub-daisy_duck,505
both,up,no,left,left,1,0.5267843999899924,sub-daisy_duck,511
both,up,no,left,left,1,0.5947171999141574,sub-daisy_duck,277
down,down,yes,left,left,1,0.3731235999148339,sub-daisy_duck,508
both,up,no,right,right,1,0.6276697001885623,sub-daisy_duck,252
up,up,no,left,left,1,0.6628298000432551,sub-daisy_duck,534
down,up,no,right,right,1,0.6110969998408109,sub-daisy_duck,520
up,up,no,left,left,1,0.5097815999761224,sub-daisy_duck,246
both,up,yes,right,right,1,0.4421685999259352,sub-daisy_duck,291
up,down,no,left,left,1,0.611684100003913,sub-daisy_duck,3
both,up,no,right,right,1,0.6626053999643773,sub-daisy_duck,285
up,down,yes,right,right,1,0.6454381998628378,sub-daisy_duck,95
down,down,no,left,left,1,0.5599205999169499,sub-daisy_duck,81
both,down,yes,right,right,1,0.3902437000069767,sub-daisy_duck,56
both,down,yes,left,left,1,0.5932656000368297,sub-daisy_duck,42
up,down,yes,left,left,1,0.458286700071767,sub-daisy_duck,118
both,down,yes,right,right,1,0.5272942001465708,sub-daisy_duck,642
up,down,no,right,right,1,0.6292777000926435,sub-daisy_duck,124
down,up,no,left,left,1,0.5944221999961883,sub-daisy_duck,130
down,up,yes,right,right,1,0.5090877001639456,sub-daisy_duck,468
down,down,no,right,right,1,0.4745808998122811,sub-daisy_duck,326
both,down,yes,left,left,1,0.3904745001345873,sub-daisy_duck,440
down,down,yes,left,left,1,0.4070969000458717,sub-daisy_duck,454
both,up,yes,right,right,1,0.4581563000101596,sub-daisy_duck,332
down,up,no,left,left,1,0.4758657000493258,sub-daisy_duck,483
down,down,no,left,left,1,0.4924220000393688,sub-daisy_duck,497
both,down,yes,right,right,1,0.5092122999485582,sub-daisy_duck,496
both,up,no,left,left,1,0.4591550000477582,sub-daisy_duck,482
both,down,yes,right,right,1,0.4587507001124322,sub-daisy_duck,455
up,up,yes,right,right,1,0.3914574000518769,sub-daisy_duck,333
both,up,no,right,right,1,0.5770813000854105,sub-daisy_duck,327
up,up,no,left,left,1,0.8153846000786871,sub-daisy_duck,441
up,up,yes,right,right,1,0.4246008000336587,sub-daisy_duck,469
up,down,no,left,left,1,0.7130078000482172,sub-daisy_duck,131
up,down,no,right,right,1,0.5436052000150084,sub-daisy_duck,643
down,down,no,left,left,1,0.543117499910295,sub-daisy_duck,125
both,up,no,left,left,1,0.5429207000415772,sub-daisy_duck,119
down,up,no,right,right,1,0.6961629998404533,sub-daisy_duck,43
up,down,yes,left,left,1,0.44124750001356,sub-daisy_duck,57
down,down,yes,right,right,1,0.4920502998866141,sub-daisy_duck,80
down,up,no,right,right,1,0.6609431998804212,sub-daisy_duck,94
down,down,no,left,left,1,0.6270762998610735,sub-daisy_duck,284
up,up,no,left,left,1,0.4747568999882787,sub-daisy_duck,290
up,up,yes,left,left,1,0.4079342999029904,sub-daisy_duck,2
both,up,no,right,right,1,0.5933785999659449,sub-daisy_duck,521
both,down,yes,left,left,1,0.475626400206238,sub-daisy_duck,247
up,down,yes,left,left,1,0.474715800024569,sub-daisy_duck,253
both,up,no,left,left,1,0.6790579999797046,sub-daisy_duck,535
both,up,yes,left,left,1,0.373848200077191,sub-daisy_duck,509
both,down,yes,left,left,1,0.4755883999168873,sub-daisy_duck,279
down,down,no,right,right,1,0.543567500077188,sub-daisy_duck,245
down,up,no,left,left,1,0.5089000998996198,sub-daisy_duck,523
up,up,yes,right,right,1,0.4243450001813471,sub-daisy_duck,537
up,up,no,right,right,1,0.6449512999970466,sub-daisy_duck,251
both,down,no,left,left,1,0.5948236000258476,sub-daisy_duck,286
up,up,no,left,left,1,0.5777157999109477,sub-daisy_duck,0
both,down,no,right,right,1,0.6116263000294566,sub-daisy_duck,292
down,up,yes,left,left,1,0.4933209000155329,sub-daisy_duck,82
both,up,no,right,right,1,0.6117740001063794,sub-daisy_duck,96
both,up,yes,left,left,1,0.4921145001426339,sub-daisy_duck,69
down,down,no,left,left,1,0.5273869000375271,sub-daisy_duck,41
both,up,yes,right,right,1,0.4075303999707103,sub-daisy_duck,55
both,up,no,right,right,1,0.7133590998128057,sub-daisy_duck,133
down,down,yes,left,left,1,0.4938562999013811,sub-daisy_duck,127
up,down,no,left,right,0,0.4072648000437766,sub-daisy_duck,641
both,down,no,right,right,1,0.5273470000829548,sub-daisy_duck,319
down,up,yes,right,right,1,0.4925158000551164,sub-daisy_duck,331
down,up,no,right,right,1,0.560433299979195,sub-daisy_duck,457
both,up,no,left,left,1,0.5605613000225276,sub-daisy_duck,443
both,down,no,left,left,1,0.4937724999617785,sub-daisy_duck,325
up,down,no,left,left,1,0.5779923000372946,sub-daisy_duck,494
up,up,no,left,left,1,0.5603549000807106,sub-daisy_duck,480
both,down,no,right,right,1,0.5258051999844611,sub-daisy_duck,481
both,up,no,right,right,1,0.5940354999620467,sub-daisy_duck,495
up,up,yes,left,left,1,0.3582693999633193,sub-daisy_duck,442
up,down,yes,left,left,1,0.3910588999278843,sub-daisy_duck,324
up,up,no,right,right,1,0.5429187999106944,sub-daisy_duck,330
both,down,no,right,left,0,0.4413912000600248,sub-daisy_duck,456
up,down,no,left,left,1,0.5438286000862718,sub-daisy_duck,318
down,down,yes,right,right,1,0.4257672000676393,sub-daisy_duck,126
up,up,yes,left,left,1,0.4069767999462783,sub-daisy_duck,640
both,down,no,right,right,1,0.5448565999977291,sub-daisy_duck,132
up,up,yes,right,right,1,0.4592329000588506,sub-daisy_duck,54
both,down,yes,right,right,1,0.475970100145787,sub-daisy_duck,40
up,up,no,right,right,1,0.6115814000368118,sub-daisy_duck,68
both,down,no,left,left,1,0.6294606998562813,sub-daisy_duck,97
both,up,no,left,left,1,0.6291245000902563,sub-daisy_duck,83
down,up,yes,left,left,1,0.4577764000277966,sub-daisy_duck,1
up,down,yes,left,left,1,0.5275920999702066,sub-daisy_duck,293
down,up,no,right,right,1,0.67806680011563,sub-daisy_duck,287
down,up,no,right,right,1,0.5091219998430461,sub-daisy_duck,536
down,up,yes,right,right,1,0.5087751001119614,sub-daisy_duck,250
both,up,no,left,left,1,0.5611364999786019,sub-daisy_duck,244
both,down,no,left,left,1,0.6284936999436468,sub-daisy_duck,522
both,down,yes,right,right,1,0.4922541000414639,sub-daisy_duck,278
down,down,no,right,left,0,0.3743187999352813,sub-daisy_duck,526
up,down,yes,right,right,1,0.4753636999521404,sub-daisy_duck,240
up,down,no,left,left,1,0.6117590998765081,sub-daisy_duck,254
both,up,yes,right,right,1,0.491516700014472,sub-daisy_duck,532
up,up,no,left,left,1,0.6456839998718351,sub-daisy_duck,268
up,down,yes,left,left,1,0.3901798999868333,sub-daisy_duck,283
up,down,no,right,right,1,0.5258943000808358,sub-daisy_duck,297
down,up,no,left,left,1,0.5260501001030207,sub-daisy_duck,5
up,up,yes,left,left,1,0.4074613000266254,sub-daisy_duck,87
down,down,yes,left,left,1,0.4419482999946922,sub-daisy_duck,93
both,down,no,left,left,1,0.6458353002090007,sub-daisy_duck,44
both,up,no,right,right,1,0.6623910998459905,sub-daisy_duck,50
both,up,yes,right,right,1,0.5611370999831706,sub-daisy_duck,78
both,down,yes,right,right,1,0.4413245001342147,sub-daisy_duck,136
down,down,yes,left,left,1,0.3913605001289397,sub-daisy_duck,644
up,down,yes,left,left,1,0.525651500094682,sub-daisy_duck,122
down,up,no,right,right,1,0.5441733999177814,sub-daisy_duck,452
both,down,yes,left,left,1,0.5613875999115407,sub-daisy_duck,334
down,down,yes,right,right,1,0.5440360000357032,sub-daisy_duck,320
down,up,yes,right,right,1,0.5610936000011861,sub-daisy_duck,446
down,down,no,right,right,1,0.5771530999336392,sub-daisy_duck,308
down,down,yes,right,right,1,0.4433365000877529,sub-daisy_duck,491
up,down,yes,left,left,1,0.4253554998431355,sub-daisy_duck,485
both,up,yes,left,left,1,0.4767510998062789,sub-daisy_duck,484
down,up,yes,left,left,1,0.4586926999036222,sub-daisy_duck,490
both,up,no,left,left,1,0.6273288000375032,sub-daisy_duck,309
up,up,no,left,left,1,0.4929047999903559,sub-daisy_duck,321
both,down,no,left,left,1,0.5099542001262307,sub-daisy_duck,447
both,up,yes,right,right,1,0.542873099911958,sub-daisy_duck,453
up,down,no,right,right,1,0.5603217999450862,sub-daisy_duck,335
both,down,no,right,right,1,0.4597893999889493,sub-daisy_duck,645
up,up,no,right,right,1,0.6279080000240356,sub-daisy_duck,123
up,down,yes,right,right,1,0.4074067000765353,sub-daisy_duck,137
up,down,no,left,left,1,0.5780951001215726,sub-daisy_duck,79
up,down,yes,right,right,1,0.4421435999684036,sub-daisy_duck,51
down,up,yes,right,right,1,0.4600637000985443,sub-daisy_duck,45
both,down,no,left,left,1,0.5770254000090063,sub-daisy_duck,92
up,down,no,right,right,1,0.6793563000392169,sub-daisy_duck,86
down,down,yes,left,left,1,0.3905052000191062,sub-daisy_duck,296
up,down,yes,left,left,1,0.4415653999894857,sub-daisy_duck,4
down,down,yes,left,left,1,0.5606426000595093,sub-daisy_duck,282
both,up,yes,right,right,1,0.5947505000513047,sub-daisy_duck,269
both,up,yes,left,left,1,0.4588198000565171,sub-daisy_duck,255
both,up,yes,left,left,1,0.3903759999666363,sub-daisy_duck,533
up,up,yes,left,left,1,0.4240554000716656,sub-daisy_duck,527
down,up,no,right,right,1,0.7642926999833435,sub-daisy_duck,241
both,down,yes,right,right,1,0.3903669000137597,sub-daisy_duck,531
down,up,no,left,right,0,0.5097835001070052,sub-daisy_duck,257
up,up,yes,left,left,1,0.4249845000449568,sub-daisy_duck,243
both,down,yes,left,left,1,0.3580400000791996,sub-daisy_duck,525
up,up,no,left,left,1,0.5097928999457508,sub-daisy_duck,519
both,down,no,left,left,1,0.6107078001368791,sub-daisy_duck,6
down,up,yes,right,right,1,0.4416614000219852,sub-daisy_duck,294
down,up,no,left,left,1,0.5604633998591453,sub-daisy_duck,280
up,up,no,left,left,1,0.6606607001740485,sub-daisy_duck,90
up,down,yes,left,left,1,0.4582093001808971,sub-daisy_duck,84
down,up,yes,left,left,1,0.6289500999264419,sub-daisy_duck,53
down,down,yes,right,right,1,0.4242893999908119,sub-daisy_duck,47
down,up,no,right,left,0,0.3903570000547915,sub-daisy_duck,121
down,up,no,left,left,1,0.5787820999976248,sub-daisy_duck,647
down,down,no,right,right,1,0.595265100011602,sub-daisy_duck,135
both,down,yes,right,right,1,0.4427124999929219,sub-daisy_duck,109
up,down,no,right,miss,-1,,sub-daisy_duck,445
down,down,no,left,left,1,0.4751275999005884,sub-daisy_duck,323
down,up,no,right,right,1,0.5606416000518948,sub-daisy_duck,337
up,up,no,right,right,1,0.8820825000293553,sub-daisy_duck,451
both,up,no,left,left,1,0.4586861000861972,sub-daisy_duck,479
up,up,yes,left,left,1,0.3576536998152733,sub-daisy_duck,486
both,down,yes,left,left,1,0.3903703999239951,sub-daisy_duck,492
both,up,yes,right,right,1,0.4243297001812607,sub-daisy_duck,493
down,up,no,right,right,1,0.8660015999339521,sub-daisy_duck,487
both,up,yes,right,right,1,0.3915333000477403,sub-daisy_duck,478
down,down,no,left,left,1,0.6113407998345792,sub-daisy_duck,336
down,down,yes,right,right,1,0.4407760000322014,sub-daisy_duck,450
up,down,yes,right,right,1,0.4419213999062776,sub-daisy_duck,444
both,down,yes,right,right,1,0.4578000998590141,sub-daisy_duck,322
down,up,yes,right,right,1,0.509608400054276,sub-daisy_duck,108
both,up,no,left,left,1,0.5108759999275208,sub-daisy_duck,134
both,down,yes,left,left,1,0.3565054000355303,sub-daisy_duck,120
up,down,yes,right,right,1,0.4076763999182731,sub-daisy_duck,646
down,up,yes,left,left,1,0.4242737998720258,sub-daisy_duck,46
down,up,no,right,right,1,0.5947346000466496,sub-daisy_duck,52
down,up,yes,right,right,1,0.4414555998519063,sub-daisy_duck,85
both,down,no,right,right,1,0.6117692000698298,sub-daisy_duck,91
both,up,yes,left,left,1,0.4074507001787424,sub-daisy_duck,281
both,up,no,right,right,1,0.7646262999624014,sub-daisy_duck,7
both,down,yes,left,left,1,0.4091639998368919,sub-daisy_duck,295
up,up,yes,right,right,1,0.44113659998402,sub-daisy_duck,518
up,up,yes,right,right,1,0.4257586998865008,sub-daisy_duck,242
down,up,yes,right,right,1,0.4771392999682575,sub-daisy_duck,524
up,down,yes,left,left,1,0.3565612002275884,sub-daisy_duck,530
both,down,no,left,left,1,0.6282054001931101,sub-daisy_duck,256
both,down,yes,left,left,1,0.3903528000228107,sub-daisy_duck,219
down,up,no,left,left,1,0.560590400127694,sub-daisy_duck,557
both,up,no,right,right,1,0.6107892000582069,sub-daisy_duck,231
down,down,no,right,right,1,0.5780197998974472,sub-daisy_duck,225
up,down,no,left,left,1,0.9005050000268966,sub-daisy_duck,543
both,down,yes,right,right,1,0.5089823000598699,sub-daisy_duck,594
up,up,no,left,left,1,0.4933589000720531,sub-daisy_duck,580
both,down,no,right,right,1,0.5597295998595655,sub-daisy_duck,35
up,down,no,right,right,1,0.645764899905771,sub-daisy_duck,21
up,down,yes,right,right,1,0.3908230999950319,sub-daisy_duck,609
down,down,yes,left,left,1,0.3735164999961853,sub-daisy_duck,147
both,up,yes,right,right,1,0.4251328001264483,sub-daisy_duck,621
down,down,no,right,right,1,0.6618864999618381,sub-daisy_duck,635
down,up,yes,right,right,1,0.4598404001444578,sub-daisy_duck,153
up,up,no,right,left,0,0.3907735999673605,sub-daisy_duck,184
both,down,no,right,right,1,0.5598433001432568,sub-daisy_duck,190
both,up,no,left,left,1,0.5773267999757081,sub-daisy_duck,379
up,up,no,right,right,1,0.5278227000962943,sub-daisy_duck,423
down,down,yes,left,left,1,0.4410804000217467,sub-daisy_duck,345
down,down,yes,right,right,1,0.4243524998892098,sub-daisy_duck,351
both,down,no,right,right,1,0.5434711000416428,sub-daisy_duck,437
up,down,yes,left,left,1,0.4081472000107169,sub-daisy_duck,386
up,down,no,right,right,1,0.5260683000087738,sub-daisy_duck,392
down,down,yes,right,right,1,0.4242550998460501,sub-daisy_duck,393
both,down,yes,left,left,1,0.4094181000255048,sub-daisy_duck,387
up,down,yes,left,left,1,0.4422104000113904,sub-daisy_duck,350
down,down,no,left,right,0,0.4590741998981684,sub-daisy_duck,436
both,up,no,right,right,1,0.526641899952665,sub-daisy_duck,422
down,up,yes,right,right,1,0.3568961999844759,sub-daisy_duck,344
down,down,yes,left,left,1,0.4579338000621646,sub-daisy_duck,378
down,down,no,right,right,1,0.5433493000455201,sub-daisy_duck,191
both,down,no,left,left,1,0.7133382998872548,sub-daisy_duck,185
up,up,yes,right,right,1,0.4928324001375586,sub-daisy_duck,634
both,up,no,right,right,1,0.6286943000741303,sub-daisy_duck,152
down,down,yes,right,right,1,0.4074675999581814,sub-daisy_duck,146
down,up,yes,left,left,1,0.4076648000627756,sub-daisy_duck,620
both,down,no,right,right,1,0.459698999999091,sub-daisy_duck,608
down,up,yes,right,right,1,0.3907243001740426,sub-daisy_duck,20
up,up,yes,left,left,1,0.4748901000712067,sub-daisy_duck,34
both,up,yes,left,left,1,0.3740796998608857,sub-daisy_duck,581
down,up,no,right,left,0,0.4079251999501139,sub-daisy_duck,595
up,up,yes,right,right,1,0.4072635001502931,sub-daisy_duck,224
both,up,no,right,right,1,0.5273997997865081,sub-daisy_duck,542
both,up,yes,left,left,1,0.3914047998841852,sub-daisy_duck,556
down,up,no,right,right,1,0.6791191999800503,sub-daisy_duck,230
down,down,yes,right,right,1,0.4582452999893576,sub-daisy_duck,218
up,up,no,right,right,1,0.5770635001827031,sub-daisy_duck,568
down,up,yes,left,left,1,0.441213299985975,sub-daisy_duck,540
down,down,yes,left,left,1,0.4073419999331236,sub-daisy_duck,226
both,up,no,left,left,1,0.5784495000261813,sub-daisy_duck,232
both,down,yes,left,left,1,0.5429157998878509,sub-daisy_duck,554
up,down,no,left,left,1,0.5593926999717951,sub-daisy_duck,583
both,down,no,right,right,1,0.6455570999532938,sub-daisy_duck,597
down,down,yes,right,right,1,0.4413906000554561,sub-daisy_duck,22
both,up,no,left,left,1,0.5941530000418425,sub-daisy_duck,36
up,up,yes,left,left,1,0.4920474998652935,sub-daisy_duck,178
up,up,yes,right,right,1,0.4073838000185787,sub-daisy_duck,150
both,up,no,right,right,1,0.5425054999068379,sub-daisy_duck,636
both,up,yes,left,left,1,0.3744761999696493,sub-daisy_duck,622
both,down,no,right,right,1,0.5950525000225753,sub-daisy_duck,144
both,down,no,left,left,1,0.6109340998809785,sub-daisy_duck,193
up,up,yes,right,right,1,0.4413948999717831,sub-daisy_duck,187
down,down,no,right,right,1,0.5428518999833614,sub-daisy_duck,408
up,down,no,left,left,1,0.4931611001957208,sub-daisy_duck,434
both,up,yes,right,right,1,0.4423577999696135,sub-daisy_duck,352
both,down,no,right,right,1,0.543000299949199,sub-daisy_duck,346
both,down,yes,left,left,1,0.4072734999936074,sub-daisy_duck,420
down,up,yes,left,left,1,0.5089243999682367,sub-daisy_duck,391
both,down,no,left,left,1,0.5777489000465721,sub-daisy_duck,385
up,up,yes,right,right,1,0.4420202998444438,sub-daisy_duck,384
up,down,yes,right,right,1,0.4255868000909686,sub-daisy_duck,390
down,up,yes,left,left,1,0.390384400030598,sub-daisy_duck,347
down,up,no,left,left,1,0.509716099826619,sub-daisy_duck,421
both,up,yes,left,left,1,0.4088788998778909,sub-daisy_duck,435
down,up,no,left,left,1,0.5104416999965906,sub-daisy_duck,353
up,down,yes,left,left,1,0.3912788999732584,sub-daisy_duck,409
up,down,yes,left,left,1,0.4421614999882877,sub-daisy_duck,186
both,down,yes,left,left,1,0.5260121000465006,sub-daisy_duck,192
up,down,yes,left,left,1,0.4085814000573009,sub-daisy_duck,623
up,up,yes,left,left,1,0.3730367999523878,sub-daisy_duck,145
up,down,no,right,left,0,0.4411140999291092,sub-daisy_duck,151
both,up,yes,right,right,1,0.4582738999743014,sub-daisy_duck,637
both,down,yes,left,left,1,0.4597020000219345,sub-daisy_duck,179
down,up,no,left,left,1,0.5601375999394804,sub-daisy_duck,37
both,up,no,left,right,0,0.4758857998531312,sub-daisy_duck,23
down,down,yes,right,right,1,0.5121803001966327,sub-daisy_duck,596
both,down,no,left,left,1,0.5427280999720097,sub-daisy_duck,582
both,down,no,left,left,1,0.6291513999458402,sub-daisy_duck,233
up,up,yes,left,left,1,0.4582687998190522,sub-daisy_duck,555
down,down,no,left,left,1,0.5952750002034009,sub-daisy_duck,541
up,up,no,left,left,1,0.611022099852562,sub-daisy_duck,227
down,down,yes,right,right,1,0.4757101000286639,sub-daisy_duck,569
down,up,no,left,left,1,0.9001631001010537,sub-daisy_duck,223
up,down,yes,right,right,1,0.3920016000047326,sub-daisy_duck,545
both,down,no,left,left,1,0.6282633999362588,sub-daisy_duck,551
up,down,yes,right,right,1,0.4421423999592662,sub-daisy_duck,237
both,up,no,left,right,0,0.4259099001064896,sub-daisy_duck,579
down,up,yes,left,left,1,0.4759472999721765,sub-daisy_duck,586
up,down,yes,left,left,1,0.3735771998763084,sub-daisy_duck,592
down,down,yes,left,left,1,0.5271856000181288,sub-daisy_duck,27
up,down,yes,right,right,1,0.4409954000730067,sub-daisy_duck,33
down,up,no,right,right,1,0.5102446000091732,sub-daisy_duck,633
up,down,no,left,left,1,0.5611307001672685,sub-daisy_duck,155
both,up,yes,left,left,1,0.3729965998791158,sub-daisy_duck,141
both,up,yes,left,left,1,0.390455599874258,sub-daisy_duck,627
down,up,no,right,right,1,0.628985800081864,sub-daisy_duck,169
up,up,no,left,left,1,0.5597902000881732,sub-daisy_duck,196
both,down,yes,right,right,1,0.3912955000996589,sub-daisy_duck,182
both,down,no,left,left,1,0.6795018000993878,sub-daisy_duck,357
down,down,yes,left,left,1,0.4408915000967681,sub-daisy_duck,431
up,up,yes,left,left,1,0.458733000094071,sub-daisy_duck,425
both,down,yes,right,right,1,0.3571776999160647,sub-daisy_duck,343
up,down,no,left,left,1,0.5274433000013232,sub-daisy_duck,419
both,up,no,left,left,1,0.5260199999902397,sub-daisy_duck,394
both,down,yes,left,left,1,0.4078490000683814,sub-daisy_duck,380
down,up,yes,left,left,1,0.4251556000672281,sub-daisy_duck,381
down,up,yes,right,right,1,0.4242916000075638,sub-daisy_duck,395
down,down,no,left,left,1,0.5769841000437737,sub-daisy_duck,418
both,up,yes,right,right,1,0.4412950999103486,sub-daisy_duck,424
both,up,yes,left,left,1,0.3395521999336779,sub-daisy_duck,342
both,up,no,left,left,1,0.5781467000488192,sub-daisy_duck,356
down,down,yes,right,right,1,0.4579445000272244,sub-daisy_duck,430
down,down,yes,right,right,1,0.4756584998685866,sub-daisy_duck,183
down,up,yes,left,left,1,0.4920514000114053,sub-daisy_duck,197
down,up,no,left,left,1,0.5602806999813765,sub-daisy_duck,168
both,up,yes,right,right,1,0.4934032000601291,sub-daisy_duck,140
down,up,yes,right,right,1,0.407080499920994,sub-daisy_duck,626
both,up,no,left,left,1,0.6448673000559211,sub-daisy_duck,632
both,up,no,left,left,1,0.5104453999083489,sub-daisy_duck,154
up,down,yes,left,left,1,0.4582882998511195,sub-daisy_duck,32
up,up,no,left,left,1,0.5607792001683265,sub-daisy_duck,26
up,down,no,right,right,1,0.5446756000164896,sub-daisy_duck,593
both,down,yes,left,left,1,0.4419197000097483,sub-daisy_duck,587
up,down,yes,right,right,1,0.4078818999696523,sub-daisy_duck,578
up,up,yes,left,left,1,0.593963900115341,sub-daisy_duck,550
both,down,yes,right,right,1,0.4581907000392675,sub-daisy_duck,236
up,up,yes,left,left,1,0.6122899998445064,sub-daisy_duck,222
down,down,yes,right,right,1,0.4926940000150352,sub-daisy_duck,544
up,down,yes,left,left,1,0.4594072999898344,sub-daisy_duck,234
both,down,no,left,left,1,0.6455655000172555,sub-daisy_duck,552
both,down,no,right,right,1,0.5616472000256181,sub-daisy_duck,546
up,up,no,right,right,1,0.5772810000926256,sub-daisy_duck,220
down,down,yes,left,left,1,0.4584029000252485,sub-daisy_duck,208
both,up,no,right,right,1,0.5614056000486016,sub-daisy_duck,591
up,up,no,right,right,1,0.4757902000565082,sub-daisy_duck,585
up,down,no,right,right,1,0.6466681999154389,sub-daisy_duck,30
both,up,yes,right,right,1,0.4592684998642653,sub-daisy_duck,24
down,down,no,right,right,1,0.6280388000886887,sub-daisy_duck,18
both,down,no,left,left,1,0.6450175000354648,sub-daisy_duck,624
down,up,yes,left,left,1,0.3735709998290986,sub-daisy_duck,142
both,up,yes,left,left,1,0.5441999998874962,sub-daisy_duck,156
up,up,no,right,left,0,0.356471300125122,sub-daisy_duck,630
both,down,yes,right,right,1,0.441201499896124,sub-daisy_duck,618
both,up,yes,left,left,1,0.458107499871403,sub-daisy_duck,181
down,down,no,right,miss,-1,,sub-daisy_duck,195
both,down,yes,left,left,1,0.5108792001847178,sub-daisy_duck,340
both,down,no,left,left,1,0.6450402000918984,sub-daisy_duck,426
both,up,no,right,right,1,0.7969696000218391,sub-daisy_duck,432
both,up,no,right,right,1,0.5604560999199748,sub-daisy_duck,354
up,down,no,right,right,1,0.4924200000241399,sub-daisy_duck,368
both,down,yes,right,right,1,0.4591413999442011,sub-daisy_duck,383
both,down,yes,right,right,1,0.4075965001247823,sub-daisy_duck,397
up,down,no,left,left,1,0.6630553998984396,sub-daisy_duck,396
down,up,no,right,right,1,0.594421099871397,sub-daisy_duck,382
down,down,yes,right,right,1,0.5252614000346512,sub-daisy_duck,369
up,up,yes,right,right,1,0.4423389001749456,sub-daisy_duck,433
up,up,no,left,right,0,0.4255849998444319,sub-daisy_duck,355
up,up,yes,right,right,1,0.5101070001255721,sub-daisy_duck,341
both,down,yes,right,right,1,0.4582341001369059,sub-daisy_duck,427
up,up,yes,right,right,1,0.50913570006378,sub-daisy_duck,194
up,down,yes,right,right,1,0.3565107998438179,sub-daisy_duck,180
down,down,yes,right,right,1,0.3913728001061827,sub-daisy_duck,619
both,down,yes,left,left,1,0.4252444000449031,sub-daisy_duck,157
both,down,yes,left,left,1,0.3564152999315411,sub-daisy_duck,631
down,down,no,left,left,1,0.4934059998486191,sub-daisy_duck,625
up,up,yes,left,left,1,0.3734172000549733,sub-daisy_duck,143
both,up,yes,left,left,1,0.5263881999999285,sub-daisy_duck,19
up,up,no,right,right,1,0.7815483000595123,sub-daisy_duck,25
up,down,no,left,left,1,0.6279968000017107,sub-daisy_duck,31
down,down,no,left,left,1,0.4418025000486523,sub-daisy_duck,584
down,up,no,left,left,1,0.7132331999018788,sub-daisy_duck,590
up,down,yes,left,left,1,0.3905680000316351,sub-daisy_duck,209
both,down,yes,left,left,1,0.424234899925068,sub-daisy_duck,547
up,down,no,right,right,1,0.5602235000114888,sub-daisy_duck,221
up,down,no,left,right,0,0.4930437998846173,sub-daisy_duck,235
up,up,no,left,left,1,0.6108155997935683,sub-daisy_duck,553
both,up,no,right,right,1,0.5779298000270501,sub-mickey_mouse,509
down,down,no,right,right,1,0.7122330999700353,sub-mickey_mouse,79
both,up,no,left,left,1,0.611717400024645,sub-mickey_mouse,51
down,down,no,right,right,1,0.6628393999999389,sub-mickey_mouse,247
down,down,yes,right,right,1,0.5267185000120662,sub-mickey_mouse,521
both,up,yes,left,left,1,0.4581573000177741,sub-mickey_mouse,535
both,down,no,left,left,1,0.6795773999765515,sub-mickey_mouse,45
down,up,yes,left,left,1,0.5103053000057116,sub-mickey_mouse,253
both,down,no,right,right,1,0.6286346000269987,sub-mickey_mouse,92
up,up,yes,right,right,1,0.5811481999699026,sub-mickey_mouse,284
down,up,yes,right,right,1,0.5773216000525281,sub-mickey_mouse,86
both,down,yes,right,right,1,0.4578389000380412,sub-mickey_mouse,290
down,up,no,left,left,1,0.7635402000159957,sub-mickey_mouse,469
both,down,no,left,left,1,1.035380899964366,sub-mickey_mouse,333
both,down,no,left,left,1,0.561715500021819,sub-mickey_mouse,455
up,up,no,right,right,1,0.7983586000045761,sub-mickey_mouse,441
up,down,yes,left,left,1,0.5106538999825716,sub-mickey_mouse,327
both,down,yes,right,right,1,0.4924338000128045,sub-mickey_mouse,496
both,up,no,left,left,1,0.5271513999905437,sub-mickey_mouse,482
both,down,yes,left,left,1,0.4420506999595091,sub-mickey_mouse,119
up,down,yes,left,left,1,0.4920927999773994,sub-mickey_mouse,131
both,up,no,left,left,1,0.7126963000046089,sub-mickey_mouse,125
both,down,no,right,right,1,0.7294410999747925,sub-mickey_mouse,643
up,down,yes,right,right,1,0.4762945999973453,sub-mickey_mouse,124
both,down,yes,right,right,1,0.5790323999826796,sub-mickey_mouse,642
up,down,no,right,right,1,0.5943836999940686,sub-mickey_mouse,130
down,up,yes,right,right,1,0.4918697999673895,sub-mickey_mouse,118
both,down,yes,left,left,1,0.459698099992238,sub-mickey_mouse,483
both,up,yes,left,left,1,0.4763767000404186,sub-mickey_mouse,497
both,down,yes,right,right,1,0.6122503000078723,sub-mickey_mouse,440
both,up,no,left,left,1,0.560757500003092,sub-mickey_mouse,326
down,up,yes,right,right,1,0.4590185000561178,sub-mickey_mouse,332
both,up,yes,left,left,1,0.4238468999974429,sub-mickey_mouse,454
up,down,no,left,right,0,0.5090421999921091,sub-mickey_mouse,468
down,up,yes,right,right,1,0.4096510999952443,sub-mickey_mouse,291
up,up,yes,left,left,1,0.4923642000067048,sub-mickey_mouse,87
both,up,yes,left,left,1,0.4917113999836147,sub-mickey_mouse,285
up,down,yes,left,left,1,0.4752535999868996,sub-mickey_mouse,93
both,up,yes,right,right,1,1.0186159999575466,sub-mickey_mouse,534
both,up,yes,left,left,1,0.4590866000507958,sub-mickey_mouse,252
down,down,no,right,right,1,0.7483989999745972,sub-mickey_mouse,44
down,down,yes,right,right,1,0.5957235000096262,sub-mickey_mouse,246
up,up,yes,left,left,1,0.4753914999892004,sub-mickey_mouse,50
down,down,no,right,right,1,0.714178099995479,sub-mickey_mouse,520
up,down,yes,left,left,1,0.4257848000270314,sub-mickey_mouse,508
both,up,yes,right,right,1,0.5090538999647833,sub-mickey_mouse,78
down,up,no,left,left,1,0.5270268000313081,sub-mickey_mouse,278
both,down,yes,left,left,1,0.4583711000159383,sub-mickey_mouse,46
both,down,yes,left,left,1,0.4931350999977439,sub-mickey_mouse,250
up,down,no,left,left,1,0.6459635000210255,sub-mickey_mouse,536
up,up,yes,right,right,1,0.4765303999884054,sub-mickey_mouse,522
both,up,yes,left,left,1,0.4069185999687761,sub-mickey_mouse,52
both,up,yes,right,right,1,0.4420914000365883,sub-mickey_mouse,244
up,down,no,right,right,1,0.6966941999853589,sub-mickey_mouse,85
both,up,no,left,left,1,0.527825600001961,sub-mickey_mouse,293
up,up,yes,right,right,1,0.5278157000429928,sub-mickey_mouse,91
both,up,no,right,right,1,0.64587519998895,sub-mickey_mouse,287
down,up,no,left,left,1,0.645927399978973,sub-mickey_mouse,318
up,up,yes,right,right,1,0.4614589000120759,sub-mickey_mouse,324
down,down,no,right,right,1,0.714480500028003,sub-mickey_mouse,442
up,down,no,right,right,1,0.5772217999910936,sub-mickey_mouse,456
both,up,yes,left,left,1,0.4761653000023216,sub-mickey_mouse,330
down,up,no,right,right,1,0.6295072000357322,sub-mickey_mouse,481
down,down,no,right,right,1,0.6276305000064895,sub-mickey_mouse,495
down,up,no,right,right,1,0.5781066000345163,sub-mickey_mouse,640
both,up,no,right,right,1,0.5952568000066094,sub-mickey_mouse,126
down,down,no,right,right,1,0.7296212999499403,sub-mickey_mouse,132
both,down,yes,right,right,1,0.5597999999881722,sub-mickey_mouse,133
up,down,yes,left,left,1,0.5106684999773279,sub-mickey_mouse,641
both,up,yes,right,right,1,0.4252159000025131,sub-mickey_mouse,127
up,up,yes,right,right,1,0.50994640000863,sub-mickey_mouse,494
up,down,no,left,left,1,0.7639581999974325,sub-mickey_mouse,480
down,down,yes,left,left,1,0.5940596999716945,sub-mickey_mouse,457
down,down,no,left,left,1,0.5443496000370942,sub-mickey_mouse,331
down,down,yes,right,right,1,0.4593259000102989,sub-mickey_mouse,325
up,down,no,left,left,1,0.6279255000408739,sub-mickey_mouse,443
up,down,yes,right,right,1,0.5271374000003561,sub-mickey_mouse,319
up,down,no,left,left,1,0.665776600013487,sub-mickey_mouse,286
down,up,yes,left,left,1,0.4921118000056594,sub-mickey_mouse,90
down,up,no,right,right,1,0.7169370999909006,sub-mickey_mouse,292
both,down,yes,right,right,1,0.5261222000117414,sub-mickey_mouse,84
up,down,no,right,right,1,0.5772640999639407,sub-mickey_mouse,523
both,up,no,left,left,1,0.5419192000408657,sub-mickey_mouse,245
up,up,no,right,right,1,0.5774696000153199,sub-mickey_mouse,53
down,up,yes,right,right,1,0.4596692000050097,sub-mickey_mouse,251
up,down,yes,right,right,1,0.476190899964422,sub-mickey_mouse,47
up,up,no,right,right,1,0.8820088999927975,sub-mickey_mouse,537
both,down,no,left,left,1,0.595693500014022,sub-mickey_mouse,279
both,up,no,right,right,1,0.6785846999846399,sub-mickey_mouse,533
down,down,yes,left,left,1,0.8207205000217073,sub-mickey_mouse,255
up,down,no,right,right,1,0.6966074000229128,sub-mickey_mouse,43
both,down,no,right,right,1,0.6457800000207499,sub-mickey_mouse,241
down,up,no,left,left,1,0.8157725000055507,sub-mickey_mouse,57
up,down,yes,right,right,1,0.5103542000288144,sub-mickey_mouse,527
down,down,no,left,left,1,0.6307505000149831,sub-mickey_mouse,269
both,down,yes,left,left,1,0.4929819999961182,sub-mickey_mouse,296
down,down,yes,right,right,1,0.5787709000287578,sub-mickey_mouse,80
up,down,no,right,right,1,0.6446854000096209,sub-mickey_mouse,282
both,up,no,right,right,1,0.6279558999813162,sub-mickey_mouse,94
down,up,yes,right,right,1,0.4754488000180572,sub-mickey_mouse,447
up,up,yes,left,left,1,0.459061199973803,sub-mickey_mouse,321
both,down,no,right,right,1,0.5952499999548309,sub-mickey_mouse,335
both,down,no,right,right,1,0.5768142999731936,sub-mickey_mouse,453
up,up,yes,left,left,1,0.4422873000148684,sub-mickey_mouse,309
both,down,no,left,left,1,0.4928365999949164,sub-mickey_mouse,484
up,down,yes,left,left,1,0.4083411000319756,sub-mickey_mouse,490
down,down,yes,right,right,1,0.5269855000078678,sub-mickey_mouse,123
both,down,no,left,left,1,0.6288065999979153,sub-mickey_mouse,645
up,up,no,left,left,1,0.6276989000034519,sub-mickey_mouse,137
both,down,no,right,right,1,0.5934681000071578,sub-mickey_mouse,136
down,down,yes,left,left,1,0.4596716999658383,sub-mickey_mouse,122
down,down,no,right,right,1,0.6123139000264928,sub-mickey_mouse,644
down,down,no,left,left,1,0.713822000019718,sub-mickey_mouse,491
up,up,no,left,left,1,0.5945234000100754,sub-mickey_mouse,485
up,up,no,left,left,1,0.5457304000156,sub-mickey_mouse,308
up,down,no,left,left,1,0.7155464999959804,sub-mickey_mouse,334
both,up,no,right,right,1,0.6442798000061885,sub-mickey_mouse,452
down,down,yes,right,right,1,0.442513299989514,sub-mickey_mouse,446
both,down,yes,right,right,1,0.4772476000362076,sub-mickey_mouse,320
down,down,no,left,left,1,0.6282999999821186,sub-mickey_mouse,95
down,down,yes,right,right,1,0.576765300007537,sub-mickey_mouse,283
both,up,yes,left,left,1,0.4927246000152081,sub-mickey_mouse,81
both,up,yes,right,right,1,0.4933500000042841,sub-mickey_mouse,297
up,up,yes,left,left,1,0.4413201000425033,sub-mickey_mouse,268
both,down,yes,right,right,1,0.5267506000236608,sub-mickey_mouse,56
up,up,yes,left,left,1,0.4758664999972097,sub-mickey_mouse,240
down,up,no,right,right,1,0.5776011000270955,sub-mickey_mouse,526
up,up,yes,right,right,1,0.6106665999977849,sub-mickey_mouse,532
down,up,yes,left,left,1,0.4919177999836392,sub-mickey_mouse,42
both,down,no,left,left,1,0.6807383000268601,sub-mickey_mouse,254
both,up,no,left,left,1,0.644758099981118,sub-mickey_mouse,524
up,down,yes,left,left,1,0.4419088999857194,sub-mickey_mouse,242
both,down,no,left,left,1,0.6620511999935843,sub-mickey_mouse,54
up,down,yes,right,right,1,0.5135459000011906,sub-mickey_mouse,256
down,up,no,right,right,1,0.5939724000054412,sub-mickey_mouse,40
up,down,yes,left,left,1,0.4586099999723956,sub-mickey_mouse,530
both,up,yes,right,right,1,0.5268662000307813,sub-mickey_mouse,518
up,up,yes,right,right,1,0.5435416999971494,sub-mickey_mouse,68
down,up,no,right,right,1,0.7826331999967806,sub-mickey_mouse,281
up,down,no,left,left,1,0.628279399999883,sub-mickey_mouse,97
down,down,yes,left,left,1,0.4761017999844625,sub-mickey_mouse,295
both,up,no,left,left,1,0.6272622999968007,sub-mickey_mouse,83
up,down,no,right,right,1,0.6290742999990471,sub-mickey_mouse,450
down,down,yes,left,left,1,0.4929750000010244,sub-mickey_mouse,336
both,up,yes,right,right,1,0.5780686999787576,sub-mickey_mouse,322
down,up,no,right,right,1,0.6616429999703541,sub-mickey_mouse,444
both,up,no,left,left,1,0.7472974000265822,sub-mickey_mouse,478
up,up,no,right,right,1,0.5964318999904208,sub-mickey_mouse,493
up,up,yes,left,left,1,0.4244699000264518,sub-mickey_mouse,487
down,up,no,left,left,1,0.5937746000126936,sub-mickey_mouse,134
up,down,no,left,left,1,0.6451143000158481,sub-mickey_mouse,646
up,up,yes,right,right,1,0.4416029999847524,sub-mickey_mouse,120
both,down,no,left,left,1,0.5935880999895744,sub-mickey_mouse,108
down,down,no,right,right,1,0.7646416000206955,sub-mickey_mouse,109
up,down,yes,right,right,1,0.5600743999821134,sub-mickey_mouse,647
up,up,no,right,left,0,0.4587489999830723,sub-mickey_mouse,121
both,down,yes,left,left,1,0.4578281000140123,sub-mickey_mouse,135
down,up,no,left,left,1,0.5282894999836572,sub-mickey_mouse,486
both,up,no,right,right,1,0.6113149999873713,sub-mickey_mouse,492
both,down,no,right,right,1,0.6286178999580443,sub-mickey_mouse,479
down,down,no,right,right,1,0.5612926000030711,sub-mickey_mouse,323
up,down,yes,left,left,1,0.5939523000270128,sub-mickey_mouse,445
down,down,no,left,left,1,0.5939800000051036,sub-mickey_mouse,451
down,up,yes,right,right,1,0.5455984000000171,sub-mickey_mouse,337
down,up,no,right,right,1,0.5610371999791823,sub-mickey_mouse,82
down,down,yes,right,right,1,0.4930044999928213,sub-mickey_mouse,294
up,up,no,right,right,1,0.6115963999764062,sub-mickey_mouse,96
both,up,no,left,left,1,0.5777386999689043,sub-mickey_mouse,280
both,down,yes,left,left,1,0.4754322999506257,sub-mickey_mouse,519
down,up,yes,left,left,1,0.4755850000074133,sub-mickey_mouse,69
up,up,yes,right,right,1,0.509258400008548,sub-mickey_mouse,41
up,up,no,left,left,1,0.6296180000063032,sub-mickey_mouse,257
down,down,no,left,left,1,0.560314699949231,sub-mickey_mouse,531
down,up,yes,left,left,1,0.47643069998594,sub-mickey_mouse,525
both,up,no,right,right,1,0.5953397999983281,sub-mickey_mouse,55
up,down,no,right,right,1,0.5969000000040978,sub-mickey_mouse,243
up,up,yes,right,right,1,0.4922583000152372,sub-mickey_mouse,218
down,up,no,right,right,1,0.5607559999916703,sub-mickey_mouse,542
up,down,no,left,left,1,0.6455267999554053,sub-mickey_mouse,32
up,up,no,left,left,1,0.5460585000109859,sub-mickey_mouse,224
down,up,no,left,left,1,0.5099457000032999,sub-mickey_mouse,26
up,up,no,right,right,1,0.6288697999552824,sub-mickey_mouse,230
up,down,yes,right,right,1,0.4752026000060141,sub-mickey_mouse,556
both,down,yes,right,right,1,0.510611500008963,sub-mickey_mouse,581
up,up,yes,left,left,1,0.4574442000011913,sub-mickey_mouse,595
up,down,no,right,left,0,0.6954755999613553,sub-mickey_mouse,378
both,up,yes,right,right,1,0.4926830999902449,sub-mickey_mouse,436
both,up,yes,right,right,1,0.458207499992568,sub-mickey_mouse,350
up,down,no,left,left,1,0.6625309999799356,sub-mickey_mouse,4
up,up,yes,right,right,1,0.5100938000250608,sub-mickey_mouse,344
down,down,yes,left,left,1,0.4417574999970384,sub-mickey_mouse,422
up,up,no,left,left,1,0.6453147000283934,sub-mickey_mouse,393
down,down,no,right,right,1,0.7133347999770194,sub-mickey_mouse,387
down,up,no,right,left,0,0.4416978000081144,sub-mickey_mouse,608
up,up,yes,left,left,1,0.4752102000056766,sub-mickey_mouse,152
up,up,no,right,right,1,0.5764096999773756,sub-mickey_mouse,634
down,down,no,left,left,1,0.5430530000012368,sub-mickey_mouse,620
both,up,yes,right,right,1,0.5095084000495262,sub-mickey_mouse,146
down,down,yes,right,right,1,0.4412903999909758,sub-mickey_mouse,191
down,up,no,left,left,1,0.5777322000358254,sub-mickey_mouse,185
down,down,no,right,right,1,0.61165279999841,sub-mickey_mouse,184
down,down,no,left,left,1,0.5782047999673523,sub-mickey_mouse,190
down,down,yes,right,right,1,0.629203199991025,sub-mickey_mouse,621
up,down,yes,left,left,1,0.4924047999666072,sub-mickey_mouse,147
both,up,no,left,left,1,0.5768985999748111,sub-mickey_mouse,153
up,down,no,right,right,1,0.6465861999895424,sub-mickey_mouse,635
up,up,yes,left,left,1,0.4597322000190615,sub-mickey_mouse,609
down,down,yes,right,right,1,0.4927166000124998,sub-mickey_mouse,386
up,down,yes,right,right,1,0.4585741000482812,sub-mickey_mouse,392
down,up,no,left,left,1,0.5444277999922633,sub-mickey_mouse,345
up,down,yes,left,left,1,0.4251415000180714,sub-mickey_mouse,423
both,up,no,left,left,1,0.5615614000125788,sub-mickey_mouse,437
up,up,no,left,left,1,0.6292470000335015,sub-mickey_mouse,5
both,down,no,left,left,1,0.5780354000162333,sub-mickey_mouse,351
up,down,no,left,left,1,0.6457145999884233,sub-mickey_mouse,379
up,down,yes,left,left,1,0.4585975999943912,sub-mickey_mouse,594
up,down,yes,right,right,1,0.5442081000073813,sub-mickey_mouse,580
down,up,yes,left,left,1,0.4590767999761738,sub-mickey_mouse,231
up,up,no,left,left,1,0.5600441999849863,sub-mickey_mouse,27
up,up,no,right,right,1,0.6956243999884464,sub-mickey_mouse,557
down,down,no,right,right,1,0.6629768999991938,sub-mickey_mouse,543
up,down,no,right,right,1,0.6120072999619879,sub-mickey_mouse,225
both,down,yes,right,right,1,0.4576223000185564,sub-mickey_mouse,33
both,up,no,right,right,1,0.6448916000081226,sub-mickey_mouse,219
both,up,no,right,right,1,0.7130215999786742,sub-mickey_mouse,569
down,up,yes,left,left,1,0.4920649000559933,sub-mickey_mouse,19
up,up,no,left,left,1,0.6107801999896765,sub-mickey_mouse,555
both,up,yes,left,left,1,0.4754109000205062,sub-mickey_mouse,25
up,down,no,left,left,1,0.5609209000249393,sub-mickey_mouse,233
down,down,yes,right,right,1,0.4749852000386454,sub-mickey_mouse,31
both,down,yes,right,right,1,0.5333165999618359,sub-mickey_mouse,227
both,down,yes,left,left,1,0.4590532999718562,sub-mickey_mouse,541
both,up,yes,right,right,1,0.4767438999842852,sub-mickey_mouse,596
down,down,yes,right,right,1,0.4741318000014871,sub-mickey_mouse,582
down,up,no,right,right,1,0.6443911000387743,sub-mickey_mouse,409
both,down,yes,right,right,1,0.5111639000242576,sub-mickey_mouse,421
down,down,no,left,left,1,0.5260860999696888,sub-mickey_mouse,347
down,down,yes,right,right,1,0.4588031999883242,sub-mickey_mouse,353
down,up,yes,right,right,1,0.5105052999570034,sub-mickey_mouse,7
down,down,yes,left,left,1,0.4922230999800376,sub-mickey_mouse,435
up,up,yes,left,left,1,0.4752147999824956,sub-mickey_mouse,384
both,down,no,left,left,1,0.6107684000162408,sub-mickey_mouse,390
both,down,no,right,right,1,0.5432870999793522,sub-mickey_mouse,179
up,up,no,left,left,1,0.5437522000283934,sub-mickey_mouse,145
up,down,no,right,right,1,0.6475205000024289,sub-mickey_mouse,623
down,up,yes,right,right,1,0.5444309000158682,sub-mickey_mouse,637
down,down,no,left,left,1,0.6958642000099644,sub-mickey_mouse,151
up,down,no,left,left,1,0.6116187999723479,sub-mickey_mouse,186
up,up,yes,left,left,1,0.4584041999769397,sub-mickey_mouse,192
up,down,yes,right,right,1,0.4255441999994218,sub-mickey_mouse,193
both,down,yes,left,left,1,0.4765707000042312,sub-mickey_mouse,187
down,up,yes,left,left,1,0.5608462000382133,sub-mickey_mouse,636
up,down,no,left,left,1,0.6277822999982163,sub-mickey_mouse,150
both,up,no,right,right,1,0.6606705999583937,sub-mickey_mouse,144
up,down,yes,left,left,1,0.4586158999591134,sub-mickey_mouse,622
down,down,yes,left,left,1,0.4924189000157639,sub-mickey_mouse,178
down,down,no,left,left,1,0.5269512999802828,sub-mickey_mouse,391
both,up,no,right,right,1,0.5781167999957688,sub-mickey_mouse,385
both,down,no,left,left,1,0.5946145000052638,sub-mickey_mouse,6
up,up,yes,left,left,1,0.4576073000207543,sub-mickey_mouse,352
down,up,yes,left,left,1,0.4244143999530934,sub-mickey_mouse,434
down,up,yes,right,right,1,0.4590633000480011,sub-mickey_mouse,420
up,down,yes,left,left,1,0.4757985000032931,sub-mickey_mouse,346
up,down,yes,right,right,1,0.4920708000427112,sub-mickey_mouse,408
up,up,no,right,right,1,0.6103787000174634,sub-mickey_mouse,583
both,up,no,right,right,1,0.6275544000091031,sub-mickey_mouse,597
both,up,yes,right,right,1,0.511398900009226,sub-mickey_mouse,226
up,up,no,right,right,1,0.5613401999580674,sub-mickey_mouse,30
up,down,no,right,right,1,0.6116384000051767,sub-mickey_mouse,540
both,down,yes,left,left,1,0.492297500022687,sub-mickey_mouse,554
down,up,no,left,left,1,0.612887600029353,sub-mickey_mouse,232
down,down,no,left,left,1,0.6110194000066258,sub-mickey_mouse,24
up,down,no,left,left,1,0.5940406000008807,sub-mickey_mouse,568
up,down,no,right,right,1,0.6115282999817282,sub-mickey_mouse,18
both,down,no,left,left,1,0.5444080000161193,sub-mickey_mouse,236
both,down,no,right,right,1,0.7132124999770895,sub-mickey_mouse,20
down,down,yes,left,left,1,0.4080422999686561,sub-mickey_mouse,550
up,up,no,left,left,1,0.5606586000067182,sub-mickey_mouse,544
up,up,yes,left,left,1,0.459111500007566,sub-mickey_mouse,222
both,down,no,right,left,0,0.391047399956733,sub-mickey_mouse,34
up,down,no,right,right,1,0.7813822999596596,sub-mickey_mouse,578
both,down,no,left,left,1,0.5259644000325352,sub-mickey_mouse,593
up,up,yes,right,right,1,0.5088855999638326,sub-mickey_mouse,587
both,down,yes,left,left,1,0.5445947999833152,sub-mickey_mouse,342
both,up,yes,right,right,1,0.4416364000062458,sub-mickey_mouse,424
up,up,yes,right,right,1,0.5264115000027232,sub-mickey_mouse,430
up,up,no,left,left,1,0.6792703000246547,sub-mickey_mouse,356
both,down,yes,left,left,1,0.5272505000466481,sub-mickey_mouse,2
down,down,no,right,right,1,0.6626017999951728,sub-mickey_mouse,418
down,up,no,right,right,1,0.7286126000108197,sub-mickey_mouse,381
down,up,yes,right,right,1,0.5114044999936596,sub-mickey_mouse,395
both,up,no,left,left,1,0.4933706999872811,sub-mickey_mouse,626
down,up,yes,right,right,1,0.4758725000428967,sub-mickey_mouse,140
down,down,no,right,right,1,0.6458541000029072,sub-mickey_mouse,154
up,up,yes,left,left,1,0.4927205999847501,sub-mickey_mouse,632
both,down,yes,right,right,1,0.4414084000163711,sub-mickey_mouse,168
both,up,no,right,right,1,0.6623434000066482,sub-mickey_mouse,183
up,up,yes,right,right,1,0.4414482000283897,sub-mickey_mouse,197
down,up,no,right,right,1,0.5946972999954596,sub-mickey_mouse,196
down,up,yes,left,left,1,0.4588388000265695,sub-mickey_mouse,182
both,up,yes,left,left,1,0.4747123999986797,sub-mickey_mouse,169
down,down,yes,left,left,1,0.5262633999809623,sub-mickey_mouse,155
up,up,no,left,left,1,0.5609995000413619,sub-mickey_mouse,633
down,down,yes,right,right,1,0.4760434999479912,sub-mickey_mouse,627
up,up,yes,left,left,1,0.4425377000006847,sub-mickey_mouse,141
both,up,no,left,left,1,0.5773036000318825,sub-mickey_mouse,394
down,down,yes,right,right,1,0.6287069000536576,sub-mickey_mouse,380
down,up,no,left,left,1,0.5607648000004701,sub-mickey_mouse,419
up,down,no,right,right,1,0.6277473999653012,sub-mickey_mouse,431
down,up,no,left,left,1,0.6616216999827884,sub-mickey_mouse,3
up,down,yes,right,right,1,0.6282248999923468,sub-mickey_mouse,357
down,up,no,right,right,1,0.5959877999848686,sub-mickey_mouse,343
both,down,yes,left,left,1,0.4592308000428602,sub-mickey_mouse,425
both,down,no,right,right,1,0.5950555999879725,sub-mickey_mouse,586
down,down,yes,left,left,1,0.4586659999913536,sub-mickey_mouse,592
both,up,no,left,left,1,0.492045099963434,sub-mickey_mouse,579
down,up,yes,right,right,1,0.4930656999931671,sub-mickey_mouse,545
up,down,yes,left,left,1,0.5266907999757677,sub-mickey_mouse,35
up,down,yes,left,left,1,0.4760027999873273,sub-mickey_mouse,223
up,down,yes,right,right,1,0.5274212000076659,sub-mickey_mouse,21
down,down,yes,left,left,1,0.4936902999761514,sub-mickey_mouse,237
both,up,no,left,left,1,0.5771223999909125,sub-mickey_mouse,551
both,up,no,left,left,1,0.5963597999652848,sub-mickey_mouse,221
both,up,no,right,right,1,0.8489411000045948,sub-mickey_mouse,37
both,down,no,right,right,1,0.6275041000335477,sub-mickey_mouse,547
both,down,no,right,right,1,0.5777559000416659,sub-mickey_mouse,553
down,down,yes,right,right,1,0.5608813000144437,sub-mickey_mouse,235
down,up,no,right,right,1,0.5260114000411704,sub-mickey_mouse,23
both,down,yes,right,right,1,0.49201060004998,sub-mickey_mouse,209
both,up,yes,left,left,1,0.4245398000348359,sub-mickey_mouse,584
up,down,no,left,left,1,0.6461290000006557,sub-mickey_mouse,590
up,down,no,left,left,1,0.6279827000107616,sub-mickey_mouse,355
both,up,yes,left,left,1,0.4585103000281378,sub-mickey_mouse,1
up,down,yes,right,right,1,0.4761566999950446,sub-mickey_mouse,433
both,up,yes,left,left,1,0.4252225999953225,sub-mickey_mouse,427
down,down,no,right,right,1,0.6155395000241697,sub-mickey_mouse,341
both,up,no,right,right,1,0.6285886999685317,sub-mickey_mouse,369
both,down,yes,right,right,1,0.5262611000216566,sub-mickey_mouse,396
down,up,no,left,left,1,0.5432988000102341,sub-mickey_mouse,382
both,down,yes,left,left,1,0.5090982999536209,sub-mickey_mouse,631
down,up,yes,left,left,1,0.4931413999875076,sub-mickey_mouse,157
down,down,no,left,left,1,0.6459728000336327,sub-mickey_mouse,143
down,down,no,left,left,1,0.6107202999992296,sub-mickey_mouse,625
up,up,no,right,right,1,0.6624682999681681,sub-mickey_mouse,619
both,down,yes,left,left,1,0.408099599997513,sub-mickey_mouse,194
both,up,no,left,left,1,0.5772433999809437,sub-mickey_mouse,180
both,up,yes,right,right,1,0.4418864999897778,sub-mickey_mouse,181
down,down,no,left,left,1,0.5608879000064917,sub-mickey_mouse,195
up,down,no,left,left,1,0.5438139999751002,sub-mickey_mouse,618
both,up,yes,left,left,1,0.4923988000373356,sub-mickey_mouse,142
down,up,no,left,left,1,0.5953244999982417,sub-mickey_mouse,624
down,down,yes,left,left,1,0.5261510999989696,sub-mickey_mouse,630
down,up,no,right,right,1,0.7983970000059344,sub-mickey_mouse,156
down,up,yes,left,left,1,0.4591044000117108,sub-mickey_mouse,383
up,down,yes,left,left,1,0.4768323999596759,sub-mickey_mouse,397
up,up,no,right,right,1,0.627359299978707,sub-mickey_mouse,368
both,down,no,left,left,1,0.6452935999841429,sub-mickey_mouse,426
up,up,no,right,right,1,0.5988845999818295,sub-mickey_mouse,340
up,up,yes,right,right,1,0.5271026999689639,sub-mickey_mouse,0
both,up,no,right,right,1,0.627273200021591,sub-mickey_mouse,354
up,up,yes,left,left,1,0.4422187000163831,sub-mickey_mouse,432
down,down,no,right,right,1,0.5774902999983169,sub-mickey_mouse,591
down,up,yes,left,left,1,0.4241572999744676,sub-mickey_mouse,585
up,up,no,left,left,1,0.5597432000213303,sub-mickey_mouse,208
down,up,no,right,right,1,0.5601033000275493,sub-mickey_mouse,552
up,up,no,right,right,1,0.6962481000227854,sub-mickey_mouse,22
both,down,no,right,right,1,0.6120150000206195,sub-mickey_mouse,234
both,up,yes,right,right,1,0.611200799990911,sub-mickey_mouse,36
down,down,no,left,left,1,0.5270375999971293,sub-mickey_mouse,220
up,up,yes,left,left,1,0.4413968999870121,sub-mickey_mouse,546
both,up,yes,left,left,1,0.4593459999887272,sub-mickey_mouse,239
up,down,yes,left,left,1,0.4930434999987483,sub-mickey_mouse,563
down,down,yes,right,right,1,0.5605903000105172,sub-mickey_mouse,13
down,down,yes,right,right,1,0.5086367999901995,sub-mickey_mouse,205
down,up,no,left,left,1,0.5599100000108592,sub-mickey_mouse,211
down,down,no,left,left,1,0.6119485999806784,sub-mickey_mouse,577
up,up,no,left,left,1,0.7290721000172198,sub-mickey_mouse,588
up,down,no,right,right,1,0.6455662000225857,sub-mickey_mouse,359
up,up,yes,left,left,1,0.4412967000389471,sub-mickey_mouse,417
down,down,no,left,left,1,0.6119018999743275,sub-mickey_mouse,371
up,up,yes,right,right,1,0.4581972000305541,sub-mickey_mouse,365
up,up,yes,right,right,1,0.4761131000122987,sub-mickey_mouse,403
both,up,yes,right,right,1,0.4588710999814793,sub-mickey_mouse,629
down,up,no,right,right,1,0.611087299999781,sub-mickey_mouse,173
both,up,no,left,left,1,0.5442263999721035,sub-mickey_mouse,615
both,up,yes,left,left,1,0.4575534000177867,sub-mickey_mouse,601
both,down,no,right,right,1,0.6110970000154339,sub-mickey_mouse,167
down,up,yes,right,right,1,0.6963349000434391,sub-mickey_mouse,198
both,up,yes,left,left,1,0.4751107000047341,sub-mickey_mouse,199
down,down,no,right,right,1,0.5947070000111125,sub-mickey_mouse,600
both,down,no,left,left,1,0.5954053000314161,sub-mickey_mouse,166
up,down,no,right,right,1,0.5769656000193208,sub-mickey_mouse,172
down,down,yes,left,left,1,0.5086900999885984,sub-mickey_mouse,614
both,up,no,right,right,1,0.6288478000205941,sub-mickey_mouse,628
up,up,yes,left,left,1,0.4584202000405639,sub-mickey_mouse,364
both,up,yes,left,left,1,0.4938856000080704,sub-mickey_mouse,402
both,down,no,right,right,1,0.5429808999761008,sub-mickey_mouse,416
down,down,yes,left,left,1,0.5089430999942124,sub-mickey_mouse,370
both,down,no,right,right,1,0.6286814999766648,sub-mickey_mouse,358
down,up,no,left,left,1,0.5938610999728553,sub-mickey_mouse,589
both,up,no,left,left,1,0.5597656000172719,sub-mickey_mouse,210
down,up,no,right,right,1,0.7136384999612346,sub-mickey_mouse,576
down,up,no,left,left,1,0.5781945000053383,sub-mickey_mouse,562
up,up,no,right,right,1,0.5939304999774322,sub-mickey_mouse,204
both,up,no,right,right,1,0.5622195999603719,sub-mickey_mouse,12
up,down,yes,right,right,1,0.4956234999699518,sub-mickey_mouse,238
down,up,yes,left,left,1,0.4757007000152953,sub-mickey_mouse,548
down,up,yes,right,right,1,0.5598667000303976,sub-mickey_mouse,38
down,down,yes,left,left,1,0.4078651000163518,sub-mickey_mouse,574
up,down,no,right,right,1,0.6114205999765545,sub-mickey_mouse,212
down,down,yes,left,left,1,0.4424310000031255,sub-mickey_mouse,10
both,down,no,right,right,1,0.6103397000115365,sub-mickey_mouse,206
down,up,yes,left,left,1,0.5438264000113122,sub-mickey_mouse,560
up,up,no,right,left,0,0.4245236999704502,sub-mickey_mouse,428
down,up,no,left,left,1,0.5431796000339091,sub-mickey_mouse,400
up,up,no,left,left,1,0.6122400999884121,sub-mickey_mouse,366
up,down,yes,right,right,1,0.4927321000141091,sub-mickey_mouse,372
up,down,no,left,left,1,0.526579600002151,sub-mickey_mouse,414
up,up,no,right,right,1,0.6454353999579325,sub-mickey_mouse,399
both,up,yes,left,left,1,0.5093315000412986,sub-mickey_mouse,158
up,up,no,right,right,1,0.7131793999578804,sub-mickey_mouse,164
both,up,yes,right,right,1,0.4757258999743499,sub-mickey_mouse,602
up,down,yes,right,right,1,0.5606244000373408,sub-mickey_mouse,616
up,down,yes,left,left,1,0.4590639999951236,sub-mickey_mouse,170
both,down,yes,left,left,1,0.4583181999623775,sub-mickey_mouse,617
up,up,no,right,right,1,0.6613454999751411,sub-mickey_mouse,171
both,down,yes,right,right,1,0.4595620000036433,sub-mickey_mouse,165
both,down,yes,right,right,1,0.458530800009612,sub-mickey_mouse,603
up,down,yes,right,right,1,0.6619698000140488,sub-mickey_mouse,159
both,up,yes,right,right,1,0.4918038999894634,sub-mickey_mouse,398
both,up,yes,left,left,1,0.4760227000224404,sub-mickey_mouse,373
down,up,yes,left,left,1,0.4422050000284798,sub-mickey_mouse,415
both,down,no,right,right,1,0.6279852999723516,sub-mickey_mouse,401
both,down,no,right,right,1,0.6970804000156932,sub-mickey_mouse,367
both,up,no,right,right,1,0.611396899970714,sub-mickey_mouse,429
down,down,yes,left,left,1,0.5946139000006951,sub-mickey_mouse,207
up,up,yes,left,left,1,0.4575562999816611,sub-mickey_mouse,11
down,down,no,left,left,1,0.5270616000052541,sub-mickey_mouse,561
up,up,yes,left,left,1,0.458223599998746,sub-mickey_mouse,575
both,up,no,right,right,1,0.62850220000837,sub-mickey_mouse,213
both,down,no,left,left,1,0.6109583000070415,sub-mickey_mouse,549
both,up,no,left,left,1,0.6790047999820672,sub-mickey_mouse,39
both,down,yes,left,left,1,0.4250706000020727,sub-mickey_mouse,217
down,down,yes,right,right,1,0.4755788000184111,sub-mickey_mouse,571
both,down,no,left,left,1,0.5430380000034347,sub-mickey_mouse,565
down,down,no,right,right,1,0.5946802999824286,sub-mickey_mouse,203
both,down,yes,right,right,1,0.4921549999853596,sub-mickey_mouse,15
down,down,no,right,right,1,0.6460099000250921,sub-mickey_mouse,559
down,down,yes,left,left,1,0.5084636999526992,sub-mickey_mouse,29
both,down,yes,left,left,1,0.4251199999707751,sub-mickey_mouse,363
down,up,yes,left,left,1,0.5269832000485621,sub-mickey_mouse,405
both,up,no,left,left,1,0.5781360000255518,sub-mickey_mouse,411
both,up,yes,right,right,1,0.4931775000295602,sub-mickey_mouse,377
down,up,no,left,left,1,0.577196299971547,sub-mickey_mouse,439
up,down,no,left,left,1,0.5940548000507988,sub-mickey_mouse,388
down,up,no,left,left,1,0.5100197999854572,sub-mickey_mouse,607
down,down,yes,right,right,1,0.4421244999975897,sub-mickey_mouse,161
both,down,no,left,left,1,0.5767905000247993,sub-mickey_mouse,175
both,up,no,right,right,1,0.5607853000401519,sub-mickey_mouse,613
down,up,no,left,left,1,0.5438620999921113,sub-mickey_mouse,149
up,up,yes,right,right,1,0.5106412000022829,sub-mickey_mouse,148
up,up,yes,right,right,1,0.4934963000123389,sub-mickey_mouse,174
down,up,yes,right,right,1,0.4750286000198684,sub-mickey_mouse,612
down,up,yes,left,left,1,0.4412105000228621,sub-mickey_mouse,606
down,up,yes,right,right,1,0.4758916999562643,sub-mickey_mouse,160
down,up,no,right,right,1,0.5938029999961145,sub-mickey_mouse,389
up,up,yes,right,right,1,0.4755187999689951,sub-mickey_mouse,438
down,down,no,left,left,1,0.6273739000316709,sub-mickey_mouse,410
both,down,no,left,left,1,0.6626599000301212,sub-mickey_mouse,376
down,up,yes,right,right,1,0.4755523999920115,sub-mickey_mouse,362
down,down,yes,left,left,1,0.6116035000304691,sub-mickey_mouse,404
up,down,no,right,right,1,0.6948624999495223,sub-mickey_mouse,558
up,up,yes,left,left,1,0.5770751000382006,sub-mickey_mouse,28
both,up,yes,left,left,1,0.4239621000015177,sub-mickey_mouse,564
both,up,no,left,left,1,0.5952563000028022,sub-mickey_mouse,14
up,down,no,left,left,1,0.6279914000188,sub-mickey_mouse,202
down,up,yes,right,right,1,0.442149700014852,sub-mickey_mouse,216
up,up,yes,right,right,1,0.4584182000253349,sub-mickey_mouse,570
both,up,yes,right,right,1,0.4755750999902375,sub-mickey_mouse,200
down,down,no,right,right,1,0.6971962000243366,sub-mickey_mouse,16
both,up,yes,right,right,1,0.4922581000137143,sub-mickey_mouse,566
both,down,yes,right,right,1,0.4756062000524252,sub-mickey_mouse,572
up,down,yes,left,left,1,0.5613109999685548,sub-mickey_mouse,214
down,up,no,right,right,1,0.6831016999785788,sub-mickey_mouse,228
both,down,yes,left,left,1,0.662118999985978,sub-mickey_mouse,599
both,down,yes,right,right,1,0.4747518000076525,sub-mickey_mouse,374
up,up,no,left,left,1,0.5944107000250369,sub-mickey_mouse,412
up,down,no,right,right,1,0.56020389997866,sub-mickey_mouse,406
up,down,yes,left,left,1,0.4752834999817423,sub-mickey_mouse,360
both,down,yes,right,right,1,0.4944071000209078,sub-mickey_mouse,348
up,down,yes,left,left,1,0.4587633000337519,sub-mickey_mouse,8
both,down,no,right,right,1,0.5949765000259504,sub-mickey_mouse,610
up,up,no,left,left,1,0.6445578000275418,sub-mickey_mouse,176
both,down,yes,left,left,1,0.4419227999751456,sub-mickey_mouse,162
both,down,no,left,left,1,0.6285671999794431,sub-mickey_mouse,604
both,up,yes,left,left,1,0.4748772000311874,sub-mickey_mouse,638
up,up,yes,left,left,1,0.4583517999853939,sub-mickey_mouse,189
up,down,yes,right,right,1,0.4599393999669701,sub-mickey_mouse,188
up,up,yes,right,right,1,0.5268155999947339,sub-mickey_mouse,639
up,down,no,right,right,1,0.578728599997703,sub-mickey_mouse,163
up,up,no,left,left,1,0.526744399976451,sub-mickey_mouse,605
up,up,yes,right,right,1,0.5103647999931127,sub-mickey_mouse,611
down,up,yes,right,right,1,0.8996917000040412,sub-mickey_mouse,177
down,down,no,left,left,1,0.6117376000038348,sub-mickey_mouse,9
both,up,yes,left,left,1,0.47665440000128,sub-mickey_mouse,349
both,down,yes,left,left,1,0.5934978000004776,sub-mickey_mouse,407
down,down,no,right,right,1,0.6447189999744296,sub-mickey_mouse,361
both,up,no,left,left,1,0.6968939999933355,sub-mickey_mouse,375
down,down,yes,right,right,1,0.4762453999719582,sub-mickey_mouse,413
down,up,yes,right,right,1,0.4577861999860033,sub-mickey_mouse,598
down,down,no,right,right,1,0.5440171000082046,sub-mickey_mouse,229
both,up,no,left,left,1,0.4569007999962196,sub-mickey_mouse,573
both,down,no,left,left,1,0.5605705000343733,sub-mickey_mouse,215
both,up,yes,right,right,1,0.5099954000324942,sub-mickey_mouse,17
down,up,yes,left,left,1,0.4242913000052795,sub-mickey_mouse,201
down,up,yes,right,right,1,0.5432124999933876,sub-mickey_mouse,567
up,down,yes,right,right,1,0.5091239000321366,sub-mickey_mouse,528
down,up,yes,right,right,1,0.5595609999727458,sub-mickey_mouse,58
up,down,yes,right,right,1,0.4929081000154838,sub-mickey_mouse,70
down,up,yes,right,right,1,0.4249366999720223,sub-mickey_mouse,266
up,down,yes,right,right,1,0.442320300033316,sub-mickey_mouse,500
down,down,no,left,left,1,0.64548859995557,sub-mickey_mouse,514
down,down,no,left,left,1,0.6276612000074238,sub-mickey_mouse,64
up,down,yes,left,left,1,0.4763506000163033,sub-mickey_mouse,272
both,up,no,right,right,1,0.7137218000134453,sub-mickey_mouse,299
up,up,no,left,left,1,0.509042399993632,sub-mickey_mouse,448
down,up,yes,left,left,1,0.459606199990958,sub-mickey_mouse,312
up,up,yes,right,right,1,0.4931374999578111,sub-mickey_mouse,474
down,up,yes,left,left,1,0.442033100000117,sub-mickey_mouse,460
down,down,no,right,right,1,0.6107752000098117,sub-mickey_mouse,306
down,up,no,right,right,1,0.6277147000073455,sub-mickey_mouse,138
up,down,yes,right,right,1,0.5266911999788135,sub-mickey_mouse,110
both,up,yes,left,left,1,0.4752160000498406,sub-mickey_mouse,104
both,down,yes,right,right,1,0.5259702999610454,sub-mickey_mouse,105
down,up,no,left,left,1,0.6112766999867745,sub-mickey_mouse,111
both,down,no,left,left,1,0.6454668000224046,sub-mickey_mouse,139
both,up,no,right,left,0,0.4599802999873645,sub-mickey_mouse,461
down,down,no,left,left,1,0.7492162000271492,sub-mickey_mouse,307
both,up,no,right,right,1,0.5786869000294246,sub-mickey_mouse,313
down,up,no,right,right,1,0.6795627999817953,sub-mickey_mouse,475
both,down,yes,left,left,1,0.475028500019107,sub-mickey_mouse,449
up,up,no,right,left,0,0.6169509000028484,sub-mickey_mouse,298
up,up,no,right,right,1,0.5428949000197463,sub-mickey_mouse,515
down,down,yes,left,left,1,0.4592147000366822,sub-mickey_mouse,273
both,down,no,right,right,1,0.5601665999856777,sub-mickey_mouse,65
up,up,no,right,right,1,0.5782919999910519,sub-mickey_mouse,267
both,up,yes,right,right,1,0.5437422000104561,sub-mickey_mouse,71
down,up,yes,left,left,1,0.4254960999824106,sub-mickey_mouse,501
both,down,yes,right,right,1,0.4413887999835424,sub-mickey_mouse,529
down,down,yes,right,right,1,0.5783083999995142,sub-mickey_mouse,59
down,down,no,left,left,1,0.6837475000065751,sub-mickey_mouse,259
up,up,no,left,left,1,0.5938247999874875,sub-mickey_mouse,67
both,down,no,right,right,1,0.6100790000054985,sub-mickey_mouse,271
down,down,yes,left,left,1,0.4577170999837108,sub-mickey_mouse,517
both,down,no,right,right,1,0.6456025999505073,sub-mickey_mouse,503
both,down,yes,left,left,1,0.4929611999541521,sub-mickey_mouse,73
up,down,yes,right,right,1,0.527054300007876,sub-mickey_mouse,265
down,up,no,right,right,1,0.5780189000070095,sub-mickey_mouse,98
both,up,no,left,left,1,0.5644050000119023,sub-mickey_mouse,339
down,up,yes,left,left,1,0.4431474999873899,sub-mickey_mouse,305
down,down,yes,right,right,1,0.4765722000156529,sub-mickey_mouse,463
down,down,no,left,left,1,0.7812231000280008,sub-mickey_mouse,477
up,down,yes,right,right,1,0.4942012999672442,sub-mickey_mouse,311
down,down,yes,left,left,1,0.4588916000211611,sub-mickey_mouse,488
down,down,no,left,left,1,0.6109581000055186,sub-mickey_mouse,107
down,down,yes,left,left,1,0.4755539000034332,sub-mickey_mouse,113
both,up,no,left,left,1,0.714090200024657,sub-mickey_mouse,112
up,up,yes,left,left,1,0.4584971999865956,sub-mickey_mouse,106
down,up,yes,right,right,1,0.4757446000003256,sub-mickey_mouse,489
up,down,yes,left,left,1,0.4922799000050872,sub-mickey_mouse,476
up,down,no,left,left,1,0.5823906000005081,sub-mickey_mouse,310
up,up,yes,right,right,1,0.5106411000015214,sub-mickey_mouse,304
up,up,no,left,left,1,0.5610893999692053,sub-mickey_mouse,462
down,up,yes,left,left,1,0.47648010001285,sub-mickey_mouse,338
up,up,yes,right,right,1,0.4927211999893188,sub-mickey_mouse,99
up,down,no,right,right,1,0.5950430000084452,sub-mickey_mouse,502
both,up,yes,right,right,1,0.5268270000233315,sub-mickey_mouse,264
up,up,no,left,left,1,0.595439400000032,sub-mickey_mouse,72
up,up,no,left,left,1,0.4595244000083767,sub-mickey_mouse,270
down,up,no,right,right,1,0.7299259999999776,sub-mickey_mouse,66
both,down,no,left,left,1,0.5596934999921359,sub-mickey_mouse,516
both,up,no,right,right,1,0.6804623999632895,sub-mickey_mouse,258
down,up,no,left,left,1,0.543444900016766,sub-mickey_mouse,512
both,down,yes,right,right,1,0.5437322999932803,sub-mickey_mouse,274
down,down,yes,left,left,1,0.4755407000193372,sub-mickey_mouse,62
down,up,no,left,left,1,0.6138303999905474,sub-mickey_mouse,260
both,down,no,left,left,1,0.6626378999790177,sub-mickey_mouse,76
both,down,yes,right,right,1,0.441555299970787,sub-mickey_mouse,506
up,up,yes,right,right,1,0.560911100008525,sub-mickey_mouse,248
up,down,no,left,left,1,0.6618229000014253,sub-mickey_mouse,89
both,down,yes,right,right,1,0.5101121999905445,sub-mickey_mouse,466
both,down,no,right,right,1,0.714558899984695,sub-mickey_mouse,300
down,down,yes,left,left,1,0.4755635000183247,sub-mickey_mouse,314
both,down,no,left,left,1,0.76283640001202,sub-mickey_mouse,472
both,down,yes,left,left,1,0.4082477000192739,sub-mickey_mouse,328
down,down,yes,right,right,1,0.4577759999665431,sub-mickey_mouse,499
up,down,no,right,right,1,0.6458839999977499,sub-mickey_mouse,102
down,down,yes,right,right,1,0.4933099999907426,sub-mickey_mouse,116
both,up,yes,right,right,1,0.4759451000136323,sub-mickey_mouse,117
up,up,no,left,left,1,0.5264096999890171,sub-mickey_mouse,103
both,up,yes,right,right,1,0.6450795999844559,sub-mickey_mouse,498
down,up,no,right,right,1,0.6461130999960005,sub-mickey_mouse,329
up,up,no,left,left,1,0.6320005999878049,sub-mickey_mouse,315
up,up,no,right,right,1,0.865101000003051,sub-mickey_mouse,473
both,up,yes,left,left,1,0.4588949000462889,sub-mickey_mouse,467
up,down,yes,left,left,1,0.5950710999895819,sub-mickey_mouse,301
up,up,no,right,right,1,0.593631399970036,sub-mickey_mouse,88
up,up,no,right,right,1,0.6135078999795951,sub-mickey_mouse,249
down,down,yes,left,left,1,0.4582959999679588,sub-mickey_mouse,77
up,down,no,left,left,1,0.5826356000034139,sub-mickey_mouse,261
both,down,no,right,right,1,0.5940524999750778,sub-mickey_mouse,507
up,up,no,left,left,1,0.4921308000339195,sub-mickey_mouse,513
up,down,no,left,left,1,0.5768297999748029,sub-mickey_mouse,63
both,down,yes,left,left,1,0.461832599947229,sub-mickey_mouse,275
up,down,no,left,left,1,0.5770848999964073,sub-mickey_mouse,505
both,down,yes,right,right,1,0.5101703000254929,sub-mickey_mouse,263
down,up,no,left,left,1,0.59387229999993,sub-mickey_mouse,75
down,up,yes,left,left,1,0.4760210000094957,sub-mickey_mouse,277
down,down,no,right,right,1,0.6956193000078201,sub-mickey_mouse,61
down,up,yes,right,right,1,0.4245315000298433,sub-mickey_mouse,511
down,down,yes,right,right,1,0.6107491999864578,sub-mickey_mouse,539
up,down,yes,left,left,1,0.4418531999690458,sub-mickey_mouse,49
up,down,no,right,right,1,0.612989799992647,sub-mickey_mouse,288
both,down,yes,left,left,1,0.5597003999864683,sub-mickey_mouse,471
up,up,no,right,right,1,0.6127501000300981,sub-mickey_mouse,317
down,up,no,left,left,1,0.6969603999750689,sub-mickey_mouse,303
down,down,no,right,right,1,0.6287053999840282,sub-mickey_mouse,465
up,up,yes,left,left,1,0.4761975000146776,sub-mickey_mouse,459
both,up,no,right,right,1,0.679624300042633,sub-mickey_mouse,115
up,down,yes,left,left,1,0.5099765000049956,sub-mickey_mouse,101
down,up,yes,left,left,1,0.492322799982503,sub-mickey_mouse,129
up,down,no,left,left,1,0.6128428999800235,sub-mickey_mouse,128
both,down,no,right,right,1,0.6628150999895297,sub-mickey_mouse,100
down,up,yes,left,left,1,0.5269892999785952,sub-mickey_mouse,114
up,down,yes,right,right,1,0.4751005999860354,sub-mickey_mouse,458
both,down,no,left,left,1,0.631546700024046,sub-mickey_mouse,302
down,up,yes,right,right,1,0.4932235999731347,sub-mickey_mouse,464
both,up,yes,right,right,1,0.6282295000273734,sub-mickey_mouse,470
up,down,no,right,right,1,0.628884100005962,sub-mickey_mouse,316
both,up,yes,left,left,1,0.4278551999595947,sub-mickey_mouse,289
down,up,no,left,left,1,0.5601975999888964,sub-mickey_mouse,538
up,down,no,right,right,1,0.6294924000394531,sub-mickey_mouse,48
both,down,yes,left,left,1,0.510691899980884,sub-mickey_mouse,60
down,down,no,right,right,1,0.6790490000275895,sub-mickey_mouse,276
both,up,yes,left,left,1,0.4583216999890283,sub-mickey_mouse,510
up,up,yes,left,left,1,0.4072038999875076,sub-mickey_mouse,504
up,down,yes,right,right,1,0.594072200008668,sub-mickey_mouse,74
down,up,no,right,right,1,0.6457072999910451,sub-mickey_mouse,262
up,down,yes,left,left,1,0.6117694999556988,sub-minnie_mouse,208
up,up,no,left,left,1,0.6972980999853462,sub-minnie_mouse,546
up,up,yes,right,right,1,0.6611804999411106,sub-minnie_mouse,220
both,down,no,right,right,1,0.7647184000816196,sub-minnie_mouse,234
up,down,yes,left,left,1,0.5766275000059977,sub-minnie_mouse,552
up,down,yes,left,left,1,0.4926933000097051,sub-minnie_mouse,585
both,up,no,right,right,1,0.7140905000269413,sub-minnie_mouse,591
up,up,no,left,left,1,0.8322416000301018,sub-minnie_mouse,368
up,down,no,right,right,1,0.8831427999539301,sub-minnie_mouse,47
both,down,yes,right,right,1,0.5436259999405593,sub-minnie_mouse,432
both,up,no,left,left,1,0.849906999967061,sub-minnie_mouse,354
both,up,yes,right,right,1,0.6276473999023438,sub-minnie_mouse,340
down,up,no,left,right,0,0.7138125000055879,sub-minnie_mouse,53
up,down,yes,left,left,1,0.560618199990131,sub-minnie_mouse,426
both,down,no,right,right,1,0.7468173999805003,sub-minnie_mouse,84
up,up,no,left,left,1,0.8151203999295831,sub-minnie_mouse,397
up,down,yes,left,left,1,0.5940509000793099,sub-minnie_mouse,383
up,down,yes,left,left,1,0.5613060999894515,sub-minnie_mouse,90
down,down,yes,left,left,1,0.5253355000168085,sub-minnie_mouse,618
up,down,no,right,right,1,0.6288303999463096,sub-minnie_mouse,156
down,up,yes,right,right,1,0.6976948999799788,sub-minnie_mouse,630
down,down,no,right,right,1,0.9854654000373556,sub-minnie_mouse,624
down,down,yes,right,right,1,0.6121193000581115,sub-minnie_mouse,142
down,down,no,right,right,1,0.6447598000522703,sub-minnie_mouse,195
up,down,yes,right,right,1,0.7138301000231877,sub-minnie_mouse,181
up,down,no,left,left,1,0.6971810999093577,sub-minnie_mouse,180
both,up,no,left,right,0,0.6795822000131011,sub-minnie_mouse,194
down,up,yes,left,left,1,0.5441465000621974,sub-minnie_mouse,625
down,up,yes,left,left,1,0.7123329000314698,sub-minnie_mouse,143
both,up,yes,left,left,1,0.5770524999825284,sub-minnie_mouse,157
both,up,no,left,left,1,0.7818063999293372,sub-minnie_mouse,631
up,down,yes,left,left,1,0.5433915000176057,sub-minnie_mouse,619
both,up,no,right,right,1,0.881991499918513,sub-minnie_mouse,382
up,up,no,left,left,1,0.8836690000025555,sub-minnie_mouse,91
up,down,yes,right,right,1,0.595603600027971,sub-minnie_mouse,85
both,down,no,right,right,1,0.8664261000230908,sub-minnie_mouse,396
down,up,no,left,left,1,0.663034199969843,sub-minnie_mouse,341
up,down,no,right,right,1,0.74801690003369,sub-minnie_mouse,427
down,up,yes,left,left,1,0.6283195000141859,sub-minnie_mouse,52
down,down,yes,right,right,1,0.5441747999284416,sub-minnie_mouse,433
up,up,no,right,right,1,1.052905400050804,sub-minnie_mouse,46
down,up,no,right,right,1,0.7136197000509128,sub-minnie_mouse,355
both,down,no,right,right,1,0.9678903000894934,sub-minnie_mouse,369
both,down,no,right,left,0,0.6462899000616744,sub-minnie_mouse,590
down,down,yes,left,left,1,0.4940776000730693,sub-minnie_mouse,584
down,down,yes,left,left,1,0.5604132999433205,sub-minnie_mouse,235
down,up,yes,right,right,1,0.560097899986431,sub-minnie_mouse,553
down,down,no,right,right,1,0.7141621999908239,sub-minnie_mouse,547
up,up,no,left,left,1,0.7487831000471488,sub-minnie_mouse,221
down,up,yes,left,left,1,0.6456046999664977,sub-minnie_mouse,209
up,up,no,right,right,1,0.7294313999591395,sub-minnie_mouse,579
both,down,no,right,right,1,0.8995102000189945,sub-minnie_mouse,551
down,down,yes,right,right,1,0.6104587999871001,sub-minnie_mouse,237
up,down,yes,left,left,1,0.5611782999476418,sub-minnie_mouse,223
both,up,yes,right,right,1,0.6281471999827772,sub-minnie_mouse,545
down,up,yes,right,right,1,0.5940217999741435,sub-minnie_mouse,592
both,up,no,left,left,1,0.8496416999259964,sub-minnie_mouse,586
both,up,no,right,right,1,0.6462387000210583,sub-minnie_mouse,419
up,up,yes,right,right,1,0.611765000037849,sub-minnie_mouse,78
up,down,yes,left,left,1,0.5272665000520647,sub-minnie_mouse,50
up,up,no,left,miss,-1,,sub-minnie_mouse,425
both,up,yes,left,left,1,0.5271958999801427,sub-minnie_mouse,343
down,up,yes,right,right,1,0.5773757999995723,sub-minnie_mouse,357
up,down,yes,left,left,1,0.5275023999856785,sub-minnie_mouse,44
both,up,no,left,right,0,0.8156233000336215,sub-minnie_mouse,431
up,down,no,left,left,1,0.6800022999523208,sub-minnie_mouse,93
down,down,no,left,left,1,0.6628267000196502,sub-minnie_mouse,380
both,down,yes,left,left,1,0.5951449000276625,sub-minnie_mouse,394
both,up,yes,left,left,1,0.629334699944593,sub-minnie_mouse,87
down,down,yes,left,left,1,0.5449113000649959,sub-minnie_mouse,169
down,down,no,left,left,1,0.8311003000708297,sub-minnie_mouse,141
up,down,yes,left,left,1,0.5446370999561623,sub-minnie_mouse,627
down,up,no,right,right,1,0.8157331000547856,sub-minnie_mouse,633
both,down,no,left,left,1,0.7121339000295848,sub-minnie_mouse,155
both,down,yes,left,left,1,0.577142900088802,sub-minnie_mouse,182
up,up,no,left,left,1,0.713711200049147,sub-minnie_mouse,196
both,up,no,right,miss,-1,,sub-minnie_mouse,197
both,up,yes,left,left,1,0.6456929999403656,sub-minnie_mouse,183
up,down,yes,right,right,1,0.6291186000453308,sub-minnie_mouse,632
up,down,no,left,left,1,0.7799936999799684,sub-minnie_mouse,154
down,up,no,left,left,1,0.6788649000227451,sub-minnie_mouse,140
down,down,no,left,left,1,0.9847680000821128,sub-minnie_mouse,626
up,down,no,right,right,1,1.0016047999961302,sub-minnie_mouse,168
up,up,yes,left,left,1,0.5269665999803692,sub-minnie_mouse,395
both,up,no,left,left,1,0.8836217999923974,sub-minnie_mouse,86
down,down,yes,left,left,1,0.5440173000097275,sub-minnie_mouse,92
both,down,yes,right,right,1,0.5941193000180647,sub-minnie_mouse,381
down,down,no,left,left,1,1.0017491000471637,sub-minnie_mouse,356
down,down,yes,left,left,1,0.5775610000127926,sub-minnie_mouse,430
down,down,yes,left,left,1,0.5270234999479726,sub-minnie_mouse,45
down,up,yes,right,right,1,0.593527500052005,sub-minnie_mouse,424
up,up,yes,right,right,1,0.6289775000186637,sub-minnie_mouse,51
down,down,yes,left,left,1,0.5268229000503197,sub-minnie_mouse,342
down,up,yes,right,right,1,0.5778635999886319,sub-minnie_mouse,79
up,down,yes,right,right,1,0.6973795000230893,sub-minnie_mouse,418
both,down,no,left,left,1,0.7812908999621868,sub-minnie_mouse,587
down,up,no,left,left,1,0.6632520999992266,sub-minnie_mouse,593
both,up,no,left,left,1,0.7314180999528617,sub-minnie_mouse,222
both,down,no,left,left,1,0.7631387000437826,sub-minnie_mouse,544
up,down,yes,left,left,1,0.6438815000001341,sub-minnie_mouse,550
both,up,yes,right,right,1,0.6794696999713778,sub-minnie_mouse,236
up,down,no,left,left,1,0.8493255999637768,sub-minnie_mouse,578
both,down,yes,right,right,1,0.7134967000456527,sub-minnie_mouse,232
down,down,yes,right,right,1,0.5768003999255598,sub-minnie_mouse,554
both,down,yes,right,right,1,0.5777550999773666,sub-minnie_mouse,540
both,down,yes,left,left,1,0.5780333000002429,sub-minnie_mouse,226
down,up,yes,left,left,1,0.5433701000874862,sub-minnie_mouse,568
both,up,yes,right,right,1,0.5771772000007331,sub-minnie_mouse,597
down,up,yes,left,left,1,0.5440031999023631,sub-minnie_mouse,583
up,down,no,right,right,1,0.6118110000388697,sub-minnie_mouse,346
up,up,no,left,left,1,0.8833887999644503,sub-minnie_mouse,55
down,up,no,left,left,1,0.7819603000534698,sub-minnie_mouse,420
both,down,yes,right,right,1,0.6104324000189081,sub-minnie_mouse,41
up,down,no,right,left,0,0.6627699999371544,sub-minnie_mouse,434
both,down,yes,left,left,1,0.5775225999532267,sub-minnie_mouse,352
up,down,yes,right,right,1,0.5774610000662506,sub-minnie_mouse,69
up,up,no,right,right,1,0.7644916999852285,sub-minnie_mouse,408
down,up,no,left,left,1,0.8832779999356717,sub-minnie_mouse,385
up,down,no,right,right,1,0.8999877000460401,sub-minnie_mouse,96
up,up,yes,left,left,1,0.543653600034304,sub-minnie_mouse,82
down,down,no,right,right,1,0.7641976000741124,sub-minnie_mouse,391
down,up,no,right,right,1,0.680006799986586,sub-minnie_mouse,622
both,down,no,right,left,0,0.5270138001069427,sub-minnie_mouse,144
up,up,yes,right,right,1,0.6449792999774218,sub-minnie_mouse,150
up,down,no,left,left,1,0.5933666999917477,sub-minnie_mouse,636
down,up,no,left,left,1,0.7315350000280887,sub-minnie_mouse,178
both,down,yes,right,right,1,0.5267967999679968,sub-minnie_mouse,187
both,down,no,right,right,1,0.7480771000264212,sub-minnie_mouse,193
down,up,no,right,right,1,0.8329427000135183,sub-minnie_mouse,192
down,down,yes,right,right,1,0.5770470999414101,sub-minnie_mouse,186
up,down,yes,left,left,1,0.6456839999882504,sub-minnie_mouse,179
down,down,no,left,left,1,0.6447642999701202,sub-minnie_mouse,151
up,up,yes,left,left,1,0.4920393000356853,sub-minnie_mouse,637
both,up,no,right,right,1,0.69554570002947,sub-minnie_mouse,623
both,down,yes,left,left,1,0.5774900999385864,sub-minnie_mouse,145
both,down,yes,right,right,1,0.6112302999245003,sub-minnie_mouse,83
both,up,yes,right,right,1,0.5944806999759749,sub-minnie_mouse,390
down,down,yes,left,left,1,0.510442900005728,sub-minnie_mouse,384
up,up,yes,right,right,1,0.6800152999348938,sub-minnie_mouse,97
down,down,no,right,right,1,0.7130981999216601,sub-minnie_mouse,409
both,down,yes,right,right,1,0.6116919999476522,sub-minnie_mouse,68
down,up,no,right,right,1,0.8999148999573663,sub-minnie_mouse,435
down,up,yes,right,right,1,0.6104347000364214,sub-minnie_mouse,40
up,up,yes,left,left,1,0.5772197000915185,sub-minnie_mouse,353
both,up,no,right,right,1,0.7136641999240965,sub-minnie_mouse,347
up,up,yes,left,left,1,0.5615252999123186,sub-minnie_mouse,421
down,up,yes,right,right,1,0.6967430000659078,sub-minnie_mouse,54
up,up,yes,left,left,1,0.5082103000022471,sub-minnie_mouse,582
both,down,yes,left,left,1,0.4763526000315323,sub-minnie_mouse,596
both,up,no,right,right,1,0.8487950999988243,sub-minnie_mouse,569
up,up,no,right,right,1,0.9335103000048548,sub-minnie_mouse,541
down,up,no,right,right,1,0.8660623000469059,sub-minnie_mouse,227
both,up,yes,left,left,1,0.5265772000420839,sub-minnie_mouse,233
up,up,no,left,left,1,0.8319739000871778,sub-minnie_mouse,555
down,up,no,left,left,1,0.7134404999669641,sub-minnie_mouse,225
both,up,no,left,left,1,0.8317417999496683,sub-minnie_mouse,543
both,up,yes,left,left,1,0.5940014000516385,sub-minnie_mouse,557
down,up,yes,left,left,1,0.7301913999253884,sub-minnie_mouse,231
down,down,no,right,right,1,0.7479045999934897,sub-minnie_mouse,219
both,down,yes,right,right,1,0.6277863999130204,sub-minnie_mouse,580
down,down,no,left,left,1,0.6796266000019386,sub-minnie_mouse,594
up,down,no,left,left,1,0.7807493999134749,sub-minnie_mouse,351
both,up,yes,right,right,1,0.6622146000154316,sub-minnie_mouse,42
down,down,no,right,right,1,0.7470735999522731,sub-minnie_mouse,437
both,down,no,right,right,1,0.9338599999900908,sub-minnie_mouse,56
both,down,no,right,right,1,0.7470810000086203,sub-minnie_mouse,423
both,down,no,right,left,0,0.5606164999771863,sub-minnie_mouse,345
up,down,no,right,right,1,0.9170853999676184,sub-minnie_mouse,379
both,up,no,right,right,1,0.7482056000735611,sub-minnie_mouse,392
down,down,no,right,right,1,0.8323299000039697,sub-minnie_mouse,81
up,down,no,right,right,1,0.7816703000571579,sub-minnie_mouse,95
up,up,yes,right,right,1,0.7140657999552786,sub-minnie_mouse,386
down,down,yes,left,left,1,0.4757843000115827,sub-minnie_mouse,635
down,up,no,right,left,0,0.7129598000319675,sub-minnie_mouse,153
up,down,yes,left,left,1,0.4920098000438884,sub-minnie_mouse,147
both,up,yes,left,left,1,0.476648399955593,sub-minnie_mouse,621
down,up,yes,left,left,1,0.5768239999888465,sub-minnie_mouse,609
both,down,no,right,left,0,0.7132183000212535,sub-minnie_mouse,190
both,up,no,left,miss,-1,,sub-minnie_mouse,184
down,up,yes,left,left,1,0.5602023999672383,sub-minnie_mouse,185
down,down,no,right,right,1,0.7123775999061763,sub-minnie_mouse,191
down,down,no,right,right,1,0.6622109999880195,sub-minnie_mouse,608
up,up,yes,left,left,1,0.5771072999341413,sub-minnie_mouse,146
down,down,yes,right,right,1,0.5275738999480382,sub-minnie_mouse,620
both,down,yes,right,right,1,0.5769093000562862,sub-minnie_mouse,634
up,up,no,right,right,1,0.7810819000005722,sub-minnie_mouse,152
down,down,no,left,left,1,0.6626436999067664,sub-minnie_mouse,94
both,up,no,left,left,1,0.6956292999675497,sub-minnie_mouse,387
up,down,no,right,right,1,0.7979892999865115,sub-minnie_mouse,393
down,down,yes,right,right,1,0.6284156000474468,sub-minnie_mouse,80
up,down,no,left,left,1,0.7638798999832943,sub-minnie_mouse,378
down,up,yes,left,left,1,0.5260805999860168,sub-minnie_mouse,422
both,up,yes,right,right,1,0.6446954000275582,sub-minnie_mouse,57
up,down,yes,right,right,1,0.5944636999629438,sub-minnie_mouse,344
both,down,yes,right,right,1,0.6290040999883786,sub-minnie_mouse,350
down,down,no,left,left,1,0.7983070000773296,sub-minnie_mouse,436
down,up,no,left,miss,-1,,sub-minnie_mouse,43
both,up,yes,left,left,1,0.5611987001029775,sub-minnie_mouse,595
up,up,yes,right,right,1,0.5259652000386268,sub-minnie_mouse,581
up,up,yes,left,left,1,0.644830200006254,sub-minnie_mouse,218
both,down,yes,right,right,1,0.5429652000311762,sub-minnie_mouse,556
up,down,no,right,right,1,0.7979523999383673,sub-minnie_mouse,230
up,down,yes,right,right,1,0.6455754999769852,sub-minnie_mouse,224
up,up,yes,right,right,1,0.6784903999650851,sub-minnie_mouse,542
down,up,no,left,left,1,0.8154852000297979,sub-minnie_mouse,5
down,down,yes,right,right,1,0.6458045999752358,sub-minnie_mouse,519
both,down,no,right,right,1,0.7653091000393033,sub-minnie_mouse,243
down,up,no,right,right,1,0.7479118999326602,sub-minnie_mouse,525
down,up,no,right,right,1,0.8835919999983162,sub-minnie_mouse,531
both,up,yes,left,left,1,0.5604953999863937,sub-minnie_mouse,257
both,up,yes,right,right,1,0.5956243999535218,sub-minnie_mouse,280
up,up,no,right,right,1,0.6634063000092283,sub-minnie_mouse,294
down,down,yes,right,right,1,0.5443750000558794,sub-minnie_mouse,18
down,down,no,left,left,1,0.6795678000198677,sub-minnie_mouse,479
up,up,no,left,left,1,0.7634615000570193,sub-minnie_mouse,337
up,up,no,left,miss,-1,,sub-minnie_mouse,24
both,down,yes,left,left,1,0.6114214999834076,sub-minnie_mouse,451
down,down,yes,right,right,1,0.5260277000488713,sub-minnie_mouse,30
both,down,no,right,right,1,0.7807130999863148,sub-minnie_mouse,445
up,down,yes,left,left,1,0.5443534000078216,sub-minnie_mouse,323
down,up,no,right,right,1,0.847417899989523,sub-minnie_mouse,492
down,down,no,left,left,1,0.6463479000376537,sub-minnie_mouse,486
down,down,yes,left,left,1,0.6113455999875441,sub-minnie_mouse,109
both,down,no,left,left,1,0.6954644999932498,sub-minnie_mouse,135
up,down,no,right,right,1,0.6629209000384435,sub-minnie_mouse,121
up,up,no,right,right,1,0.7979751999955624,sub-minnie_mouse,647
down,down,no,right,right,1,0.8341269999509677,sub-minnie_mouse,120
both,down,yes,left,left,1,0.5435766999144107,sub-minnie_mouse,646
both,down,no,right,right,1,0.8142855999758467,sub-minnie_mouse,134
up,up,no,right,right,1,0.763793500023894,sub-minnie_mouse,108
up,up,yes,left,left,1,0.5091091000940651,sub-minnie_mouse,487
both,up,yes,left,left,1,0.5272947000339627,sub-minnie_mouse,493
up,up,yes,right,right,1,0.5938531999709085,sub-minnie_mouse,444
up,down,no,left,left,1,0.6453227000311017,sub-minnie_mouse,31
both,down,no,left,left,1,0.6951012000208721,sub-minnie_mouse,322
up,down,yes,left,left,1,0.6451004000846297,sub-minnie_mouse,336
both,up,yes,right,right,1,0.6288944999687374,sub-minnie_mouse,450
down,up,no,right,right,1,0.7309933999786153,sub-minnie_mouse,25
down,up,no,left,left,1,0.8835442999843508,sub-minnie_mouse,478
both,down,no,right,right,1,0.7306745999958366,sub-minnie_mouse,19
up,down,no,right,right,1,0.6301776999607682,sub-minnie_mouse,295
both,down,yes,left,left,1,0.5279320999979973,sub-minnie_mouse,281
down,down,yes,right,right,1,0.5604690999025479,sub-minnie_mouse,530
both,down,yes,right,right,1,0.5436407000524923,sub-minnie_mouse,256
both,up,no,right,right,1,0.7985736000118777,sub-minnie_mouse,242
both,up,no,right,right,1,0.8489519000286236,sub-minnie_mouse,524
down,down,no,right,right,1,0.6962089000735432,sub-minnie_mouse,518
up,up,no,right,right,1,0.8668342999881133,sub-minnie_mouse,4
up,down,no,right,right,1,0.935630499967374,sub-minnie_mouse,6
down,down,no,left,left,1,0.8656512999441475,sub-minnie_mouse,268
up,up,yes,left,left,1,0.5445593999465927,sub-minnie_mouse,254
down,down,yes,left,left,1,0.5771392999449745,sub-minnie_mouse,532
up,down,no,left,left,1,0.8151418999768794,sub-minnie_mouse,526
down,down,no,right,right,1,0.7148864000337198,sub-minnie_mouse,240
both,down,yes,right,right,1,0.6805262999841943,sub-minnie_mouse,297
up,up,yes,left,left,1,0.5436447999672964,sub-minnie_mouse,283
both,up,yes,right,right,1,0.577440100023523,sub-minnie_mouse,308
up,up,yes,right,right,1,0.6454789000563323,sub-minnie_mouse,320
up,up,yes,left,left,1,0.5613013999536633,sub-minnie_mouse,33
down,down,yes,left,left,1,0.5261805999325588,sub-minnie_mouse,446
both,up,no,left,left,1,0.6454074999783188,sub-minnie_mouse,27
up,up,no,left,left,1,0.7477217999985442,sub-minnie_mouse,452
down,up,yes,right,right,1,0.6111372000304982,sub-minnie_mouse,334
up,down,no,left,left,1,0.6119425999931991,sub-minnie_mouse,485
up,up,yes,right,right,1,0.6794697999721393,sub-minnie_mouse,491
both,up,yes,left,left,1,0.6107792000984773,sub-minnie_mouse,644
up,up,yes,left,left,1,0.7305956999771297,sub-minnie_mouse,122
both,up,yes,left,left,1,0.6444004001095891,sub-minnie_mouse,136
up,up,no,left,right,0,0.8329736000159755,sub-minnie_mouse,137
both,down,no,left,left,1,0.7463881000876427,sub-minnie_mouse,645
both,down,yes,left,left,1,0.6795250999275595,sub-minnie_mouse,123
both,up,yes,right,right,1,0.6449790999758989,sub-minnie_mouse,490
up,up,no,right,right,1,0.9511323000770062,sub-minnie_mouse,484
down,up,yes,left,left,1,0.5267276000231504,sub-minnie_mouse,453
